<?xml version='1.0' encoding='utf8'?>
<ODM AsOfDateTime="2019-09-12T00:00:00+00:00" CreationDateTime="2021-06-17T15:26:59.365299+00:00"
    FileOID="ODM.ADaMIGv1.2.2019-09-12" FileType="Snapshot" Granularity="Metadata"
    ODMVersion="1.3.2" Originator="CDISC LIBRARY" SourceSystem="cdisc_library_api"
    SourceSystemVersion="1.0" def:Context="Other" mdr:LibraryXMLVersion="1.0.0"
    xmlns="http://www.cdisc.org/ns/odm/v1.3" xmlns:def="http://www.cdisc.org/ns/def/v2.1"
    xmlns:mdr="http://www.cdisc.org/ns/library-xml/v1.0" xmlns:xlink="http://www.w3.org/1999/xlink">
    <Study OID="STUDY.ADaMIG.v1.2">
        <GlobalVariables>
            <StudyName>ADaMIG v1.2</StudyName>
            <StudyDescription>Analysis Data Model Implementation Guide Version
                1.2</StudyDescription>
            <ProtocolName>CDISC Standard Publication</ProtocolName>
        </GlobalVariables>
        <MetaDataVersion Name="ADaMIG v1.2 Metadata" OID="MDV.ADaMIG.v1.2" def:DefineVersion="2.1.0"
            mdr:DatePublished="2019-09-12">
            <def:Standards>
                <def:Standard Name="ADaMIG v1.2" OID="STD.ADaMIGv1.2" Status="Final" Type="IG"
                    Version="1.2"/>
            </def:Standards>
            <ItemGroupDef Domain="ADSL" Name="ADSL" OID="IGD.ADSL" Purpose="Analysis" Repeating="No"
                def:Structure="One record per subject.">
                <Description>
                    <TranslatedText xml:lang="en">Subject-Level Analysis Dataset
                        Structure</TranslatedText>
                </Description>
                <ItemRef ItemOID="IT.Identifier.ADSL.STUDYID" Mandatory="No" OrderNumber="1"/>
                <ItemRef ItemOID="IT.Identifier.ADSL.USUBJID" Mandatory="No" OrderNumber="2"/>
                <ItemRef ItemOID="IT.Identifier.ADSL.SUBJID" Mandatory="No" OrderNumber="3"/>
                <ItemRef ItemOID="IT.Identifier.ADSL.SITEID" Mandatory="No" OrderNumber="4"/>
                <ItemRef ItemOID="IT.Identifier.ADSL.SITEGRy" Mandatory="No" OrderNumber="5"/>
                <ItemRef ItemOID="IT.Identifier.ADSL.SITEGRyN" Mandatory="No" OrderNumber="6"/>
                <ItemRef ItemOID="IT.Identifier.ADSL.REGIONy" Mandatory="No" OrderNumber="7"/>
                <ItemRef ItemOID="IT.Identifier.ADSL.REGIONyN" Mandatory="No" OrderNumber="8"/>
                <ItemRef ItemOID="IT.SubjectDemographics.ADSL.AGE" Mandatory="No" OrderNumber="9"/>
                <ItemRef ItemOID="IT.SubjectDemographics.ADSL.AGEU" Mandatory="No" OrderNumber="10"/>
                <ItemRef ItemOID="IT.SubjectDemographics.ADSL.AGEGRy" Mandatory="No"
                    OrderNumber="11"/>
                <ItemRef ItemOID="IT.SubjectDemographics.ADSL.AGEGRyN" Mandatory="No"
                    OrderNumber="12"/>
                <ItemRef ItemOID="IT.SubjectDemographics.ADSL.AAGE" Mandatory="No" OrderNumber="13"/>
                <ItemRef ItemOID="IT.SubjectDemographics.ADSL.SEX" Mandatory="No" OrderNumber="14"/>
                <ItemRef ItemOID="IT.SubjectDemographics.ADSL.RACE" Mandatory="No" OrderNumber="15"/>
                <ItemRef ItemOID="IT.SubjectDemographics.ADSL.RACEGRy" Mandatory="No"
                    OrderNumber="16"/>
                <ItemRef ItemOID="IT.SubjectDemographics.ADSL.RACEGRyN" Mandatory="No"
                    OrderNumber="17"/>
                <ItemRef ItemOID="IT.Treatment.ADSL.ARM" Mandatory="No" OrderNumber="18"/>
                <ItemRef ItemOID="IT.Treatment.ADSL.ACTARM" Mandatory="No" OrderNumber="19"/>
                <ItemRef ItemOID="IT.Treatment.ADSL.TRTxxP" Mandatory="No" OrderNumber="20"/>
                <ItemRef ItemOID="IT.Treatment.ADSL.TRTxxPN" Mandatory="No" OrderNumber="21"/>
                <ItemRef ItemOID="IT.Treatment.ADSL.TRTxxA" Mandatory="No" OrderNumber="22"/>
                <ItemRef ItemOID="IT.Treatment.ADSL.TRTxxAN" Mandatory="No" OrderNumber="23"/>
                <ItemRef ItemOID="IT.Treatment.ADSL.TRTSEQP" Mandatory="No" OrderNumber="24"/>
                <ItemRef ItemOID="IT.Treatment.ADSL.TRTSEQPN" Mandatory="No" OrderNumber="25"/>
                <ItemRef ItemOID="IT.Treatment.ADSL.TRTSEQA" Mandatory="No" OrderNumber="26"/>
                <ItemRef ItemOID="IT.Treatment.ADSL.TRTSEQAN" Mandatory="No" OrderNumber="27"/>
                <ItemRef ItemOID="IT.Treatment.ADSL.TRxxPGy" Mandatory="No" OrderNumber="28"/>
                <ItemRef ItemOID="IT.Treatment.ADSL.TRxxPGyN" Mandatory="No" OrderNumber="29"/>
                <ItemRef ItemOID="IT.Treatment.ADSL.TRxxAGy" Mandatory="No" OrderNumber="30"/>
                <ItemRef ItemOID="IT.Treatment.ADSL.TRxxAGyN" Mandatory="No" OrderNumber="31"/>
                <ItemRef ItemOID="IT.Treatment.ADSL.TSEQPGy" Mandatory="No" OrderNumber="32"/>
                <ItemRef ItemOID="IT.Treatment.ADSL.TSEQPGyN" Mandatory="No" OrderNumber="33"/>
                <ItemRef ItemOID="IT.Treatment.ADSL.TSEQAGy" Mandatory="No" OrderNumber="34"/>
                <ItemRef ItemOID="IT.Treatment.ADSL.TSEQAGyN" Mandatory="No" OrderNumber="35"/>
                <ItemRef ItemOID="IT.Dose.ADSL.DOSExxP" Mandatory="No" OrderNumber="36"/>
                <ItemRef ItemOID="IT.Dose.ADSL.DOSExxA" Mandatory="No" OrderNumber="37"/>
                <ItemRef ItemOID="IT.Dose.ADSL.DOSExxU" Mandatory="No" OrderNumber="38"/>
                <ItemRef ItemOID="IT.TreatmentTiming.ADSL.TRTSDT" Mandatory="No" OrderNumber="39"/>
                <ItemRef ItemOID="IT.TreatmentTiming.ADSL.TRTSTM" Mandatory="No" OrderNumber="40"/>
                <ItemRef ItemOID="IT.TreatmentTiming.ADSL.TRTSDTM" Mandatory="No" OrderNumber="41"/>
                <ItemRef ItemOID="IT.TreatmentTiming.ADSL.TRTSDTF" Mandatory="No" OrderNumber="42"/>
                <ItemRef ItemOID="IT.TreatmentTiming.ADSL.TRTSTMF" Mandatory="No" OrderNumber="43"/>
                <ItemRef ItemOID="IT.TreatmentTiming.ADSL.TRTEDT" Mandatory="No" OrderNumber="44"/>
                <ItemRef ItemOID="IT.TreatmentTiming.ADSL.TRTETM" Mandatory="No" OrderNumber="45"/>
                <ItemRef ItemOID="IT.TreatmentTiming.ADSL.TRTEDTM" Mandatory="No" OrderNumber="46"/>
                <ItemRef ItemOID="IT.TreatmentTiming.ADSL.TRTEDTF" Mandatory="No" OrderNumber="47"/>
                <ItemRef ItemOID="IT.TreatmentTiming.ADSL.TRTETMF" Mandatory="No" OrderNumber="48"/>
                <ItemRef ItemOID="IT.TreatmentTiming.ADSL.TRxxSDT" Mandatory="No" OrderNumber="49"/>
                <ItemRef ItemOID="IT.TreatmentTiming.ADSL.TRxxSTM" Mandatory="No" OrderNumber="50"/>
                <ItemRef ItemOID="IT.TreatmentTiming.ADSL.TRxxSDTM" Mandatory="No" OrderNumber="51"/>
                <ItemRef ItemOID="IT.TreatmentTiming.ADSL.TRxxSDTF" Mandatory="No" OrderNumber="52"/>
                <ItemRef ItemOID="IT.TreatmentTiming.ADSL.TRxxSTMF" Mandatory="No" OrderNumber="53"/>
                <ItemRef ItemOID="IT.TreatmentTiming.ADSL.TRxxEDT" Mandatory="No" OrderNumber="54"/>
                <ItemRef ItemOID="IT.TreatmentTiming.ADSL.TRxxETM" Mandatory="No" OrderNumber="55"/>
                <ItemRef ItemOID="IT.TreatmentTiming.ADSL.TRxxEDTM" Mandatory="No" OrderNumber="56"/>
                <ItemRef ItemOID="IT.TreatmentTiming.ADSL.TRxxEDTF" Mandatory="No" OrderNumber="57"/>
                <ItemRef ItemOID="IT.TreatmentTiming.ADSL.TRxxETMF" Mandatory="No" OrderNumber="58"/>
                <ItemRef ItemOID="IT.PeriodSubperiodPhaseTiming.ADSL.APxxSDT" Mandatory="No"
                    OrderNumber="59"/>
                <ItemRef ItemOID="IT.PeriodSubperiodPhaseTiming.ADSL.APxxSTM" Mandatory="No"
                    OrderNumber="60"/>
                <ItemRef ItemOID="IT.PeriodSubperiodPhaseTiming.ADSL.APxxSDTM" Mandatory="No"
                    OrderNumber="61"/>
                <ItemRef ItemOID="IT.PeriodSubperiodPhaseTiming.ADSL.APxxSDTF" Mandatory="No"
                    OrderNumber="62"/>
                <ItemRef ItemOID="IT.PeriodSubperiodPhaseTiming.ADSL.APxxSTMF" Mandatory="No"
                    OrderNumber="63"/>
                <ItemRef ItemOID="IT.PeriodSubperiodPhaseTiming.ADSL.APxxEDT" Mandatory="No"
                    OrderNumber="64"/>
                <ItemRef ItemOID="IT.PeriodSubperiodPhaseTiming.ADSL.APxxETM" Mandatory="No"
                    OrderNumber="65"/>
                <ItemRef ItemOID="IT.PeriodSubperiodPhaseTiming.ADSL.APxxEDTM" Mandatory="No"
                    OrderNumber="66"/>
                <ItemRef ItemOID="IT.PeriodSubperiodPhaseTiming.ADSL.APxxEDTF" Mandatory="No"
                    OrderNumber="67"/>
                <ItemRef ItemOID="IT.PeriodSubperiodPhaseTiming.ADSL.APxxETMF" Mandatory="No"
                    OrderNumber="68"/>
                <ItemRef ItemOID="IT.PeriodSubperiodPhaseTiming.ADSL.PxxSw" Mandatory="No"
                    OrderNumber="69"/>
                <ItemRef ItemOID="IT.PeriodSubperiodPhaseTiming.ADSL.PxxSwSDT" Mandatory="No"
                    OrderNumber="70"/>
                <ItemRef ItemOID="IT.PeriodSubperiodPhaseTiming.ADSL.PxxSwSTM" Mandatory="No"
                    OrderNumber="71"/>
                <ItemRef ItemOID="IT.PeriodSubperiodPhaseTiming.ADSL.PxxSwSDM" Mandatory="No"
                    OrderNumber="72"/>
                <ItemRef ItemOID="IT.PeriodSubperiodPhaseTiming.ADSL.PxxSwSDF" Mandatory="No"
                    OrderNumber="73"/>
                <ItemRef ItemOID="IT.PeriodSubperiodPhaseTiming.ADSL.PxxSwSTF" Mandatory="No"
                    OrderNumber="74"/>
                <ItemRef ItemOID="IT.PeriodSubperiodPhaseTiming.ADSL.PxxSwEDT" Mandatory="No"
                    OrderNumber="75"/>
                <ItemRef ItemOID="IT.PeriodSubperiodPhaseTiming.ADSL.PxxSwETM" Mandatory="No"
                    OrderNumber="76"/>
                <ItemRef ItemOID="IT.PeriodSubperiodPhaseTiming.ADSL.PxxSwEDM" Mandatory="No"
                    OrderNumber="77"/>
                <ItemRef ItemOID="IT.PeriodSubperiodPhaseTiming.ADSL.PxxSwEDF" Mandatory="No"
                    OrderNumber="78"/>
                <ItemRef ItemOID="IT.PeriodSubperiodPhaseTiming.ADSL.PxxSwETF" Mandatory="No"
                    OrderNumber="79"/>
                <ItemRef ItemOID="IT.PeriodSubperiodPhaseTiming.ADSL.APHASEw" Mandatory="No"
                    OrderNumber="80"/>
                <ItemRef ItemOID="IT.PeriodSubperiodPhaseTiming.ADSL.PHwSDT" Mandatory="No"
                    OrderNumber="81"/>
                <ItemRef ItemOID="IT.PeriodSubperiodPhaseTiming.ADSL.PHwSTM" Mandatory="No"
                    OrderNumber="82"/>
                <ItemRef ItemOID="IT.PeriodSubperiodPhaseTiming.ADSL.PHwSDTM" Mandatory="No"
                    OrderNumber="83"/>
                <ItemRef ItemOID="IT.PeriodSubperiodPhaseTiming.ADSL.PHwSDTF" Mandatory="No"
                    OrderNumber="84"/>
                <ItemRef ItemOID="IT.PeriodSubperiodPhaseTiming.ADSL.PHwSTMF" Mandatory="No"
                    OrderNumber="85"/>
                <ItemRef ItemOID="IT.PeriodSubperiodPhaseTiming.ADSL.PHwEDT" Mandatory="No"
                    OrderNumber="86"/>
                <ItemRef ItemOID="IT.PeriodSubperiodPhaseTiming.ADSL.PHwETM" Mandatory="No"
                    OrderNumber="87"/>
                <ItemRef ItemOID="IT.PeriodSubperiodPhaseTiming.ADSL.PHwEDTM" Mandatory="No"
                    OrderNumber="88"/>
                <ItemRef ItemOID="IT.PeriodSubperiodPhaseTiming.ADSL.PHwEDTF" Mandatory="No"
                    OrderNumber="89"/>
                <ItemRef ItemOID="IT.PeriodSubperiodPhaseTiming.ADSL.PHwETMF" Mandatory="No"
                    OrderNumber="90"/>
                <ItemRef ItemOID="IT.TrialExperience.ADSL.EOSSTT" Mandatory="No" OrderNumber="91"/>
                <ItemRef ItemOID="IT.TrialExperience.ADSL.EOSDT" Mandatory="No" OrderNumber="92"/>
                <ItemRef ItemOID="IT.TrialExperience.ADSL.DCSREAS" Mandatory="No" OrderNumber="93"/>
                <ItemRef ItemOID="IT.TrialExperience.ADSL.DCSREASP" Mandatory="No" OrderNumber="94"/>
                <ItemRef ItemOID="IT.TrialExperience.ADSL.EOTSTT" Mandatory="No" OrderNumber="95"/>
                <ItemRef ItemOID="IT.TrialExperience.ADSL.DCTREAS" Mandatory="No" OrderNumber="96"/>
                <ItemRef ItemOID="IT.TrialExperience.ADSL.DCTREASP" Mandatory="No" OrderNumber="97"/>
                <ItemRef ItemOID="IT.TrialExperience.ADSL.EOTxxSTT" Mandatory="No" OrderNumber="98"/>
                <ItemRef ItemOID="IT.TrialExperience.ADSL.DCTxxRS" Mandatory="No" OrderNumber="99"/>
                <ItemRef ItemOID="IT.TrialExperience.ADSL.DCTxxRSP" Mandatory="No" OrderNumber="100"/>
                <ItemRef ItemOID="IT.TrialExperience.ADSL.EOPxxSTT" Mandatory="No" OrderNumber="101"/>
                <ItemRef ItemOID="IT.TrialExperience.ADSL.DCPxxRS" Mandatory="No" OrderNumber="102"/>
                <ItemRef ItemOID="IT.TrialExperience.ADSL.DCPxxRSP" Mandatory="No" OrderNumber="103"/>
                <ItemRef ItemOID="IT.TrialExperience.ADSL.RFICDT" Mandatory="No" OrderNumber="104"/>
                <ItemRef ItemOID="IT.TrialExperience.ADSL.ENRLDT" Mandatory="No" OrderNumber="105"/>
                <ItemRef ItemOID="IT.TrialExperience.ADSL.RANDDT" Mandatory="No" OrderNumber="106"/>
                <ItemRef ItemOID="IT.TrialExperience.ADSL.RFICyDT" Mandatory="No" OrderNumber="107"/>
                <ItemRef ItemOID="IT.TrialExperience.ADSL.ENRLyDT" Mandatory="No" OrderNumber="108"/>
                <ItemRef ItemOID="IT.TrialExperience.ADSL.RANDyDT" Mandatory="No" OrderNumber="109"/>
                <ItemRef ItemOID="IT.TrialExperience.ADSL.LSTALVDT" Mandatory="No" OrderNumber="110"/>
                <ItemRef ItemOID="IT.TrialExperience.ADSL.TRCMP" Mandatory="No" OrderNumber="111"/>
                <ItemRef ItemOID="IT.TrialExperience.ADSL.TRCMPGy" Mandatory="No" OrderNumber="112"/>
                <ItemRef ItemOID="IT.TrialExperience.ADSL.TRCMPGyN" Mandatory="No" OrderNumber="113"/>
                <ItemRef ItemOID="IT.TrialExperience.ADSL.TRxxDURD" Mandatory="No" OrderNumber="114"/>
                <ItemRef ItemOID="IT.TrialExperience.ADSL.TRxxDURM" Mandatory="No" OrderNumber="115"/>
                <ItemRef ItemOID="IT.TrialExperience.ADSL.TRxxDURY" Mandatory="No" OrderNumber="116"/>
                <ItemRef ItemOID="IT.TrialExperience.ADSL.TRTDURD" Mandatory="No" OrderNumber="117"/>
                <ItemRef ItemOID="IT.TrialExperience.ADSL.TRTDURM" Mandatory="No" OrderNumber="118"/>
                <ItemRef ItemOID="IT.TrialExperience.ADSL.TRTDURY" Mandatory="No" OrderNumber="119"/>
                <ItemRef ItemOID="IT.TrialExperience.ADSL.DTHDT" Mandatory="No" OrderNumber="120"/>
                <ItemRef ItemOID="IT.TrialExperience.ADSL.DTHDTF" Mandatory="No" OrderNumber="121"/>
                <ItemRef ItemOID="IT.TrialExperience.ADSL.DTHCAUS" Mandatory="No" OrderNumber="122"/>
                <ItemRef ItemOID="IT.TrialExperience.ADSL.DTHCAUSN" Mandatory="No" OrderNumber="123"/>
                <ItemRef ItemOID="IT.TrialExperience.ADSL.DTHCGRy" Mandatory="No" OrderNumber="124"/>
                <ItemRef ItemOID="IT.TrialExperience.ADSL.DTHCGRyN" Mandatory="No" OrderNumber="125"/>
                <ItemRef ItemOID="IT.Stratification.ADSL.STRATAR" Mandatory="No" OrderNumber="126"/>
                <ItemRef ItemOID="IT.Stratification.ADSL.STRATARN" Mandatory="No" OrderNumber="127"/>
                <ItemRef ItemOID="IT.Stratification.ADSL.STRATwD" Mandatory="No" OrderNumber="128"/>
                <ItemRef ItemOID="IT.Stratification.ADSL.STRATwR" Mandatory="No" OrderNumber="129"/>
                <ItemRef ItemOID="IT.Stratification.ADSL.STRATwRN" Mandatory="No" OrderNumber="130"/>
                <ItemRef ItemOID="IT.Stratification.ADSL.STRATAV" Mandatory="No" OrderNumber="131"/>
                <ItemRef ItemOID="IT.Stratification.ADSL.STRATAVN" Mandatory="No" OrderNumber="132"/>
                <ItemRef ItemOID="IT.Stratification.ADSL.STRATwV" Mandatory="No" OrderNumber="133"/>
                <ItemRef ItemOID="IT.Stratification.ADSL.STRATwVN" Mandatory="No" OrderNumber="134"/>
                <ItemRef ItemOID="IT.PopulationIndicator.ADSL.FASFL" Mandatory="No"
                    OrderNumber="135"/>
                <ItemRef ItemOID="IT.PopulationIndicator.ADSL.SAFFL" Mandatory="No"
                    OrderNumber="136"/>
                <ItemRef ItemOID="IT.PopulationIndicator.ADSL.ITTFL" Mandatory="No"
                    OrderNumber="137"/>
                <ItemRef ItemOID="IT.PopulationIndicator.ADSL.PPROTFL" Mandatory="No"
                    OrderNumber="138"/>
                <ItemRef ItemOID="IT.PopulationIndicator.ADSL.COMPLFL" Mandatory="No"
                    OrderNumber="139"/>
                <ItemRef ItemOID="IT.PopulationIndicator.ADSL.RANDFL" Mandatory="No"
                    OrderNumber="140"/>
                <ItemRef ItemOID="IT.PopulationIndicator.ADSL.ENRLFL" Mandatory="No"
                    OrderNumber="141"/>
                <def:Class Name="SUBJECT LEVEL ANALYSIS DATASET"/>
            </ItemGroupDef>
            <ItemGroupDef Domain="BDS" Name="BDS" OID="IGD.BDS" Purpose="Analysis" Repeating="No"
                def:Structure="One or more records per subject, per analysis parameter, per analysis timepoint. Analysis timepoint is not required.">
                <Description>
                    <TranslatedText xml:lang="en">Basic Data Structure</TranslatedText>
                </Description>
                <ItemRef ItemOID="IT.Identifier.BDS.STUDYID" Mandatory="No" OrderNumber="142"/>
                <ItemRef ItemOID="IT.Identifier.BDS.USUBJID" Mandatory="No" OrderNumber="143"/>
                <ItemRef ItemOID="IT.Identifier.BDS.SUBJID" Mandatory="No" OrderNumber="144"/>
                <ItemRef ItemOID="IT.Identifier.BDS.SITEID" Mandatory="No" OrderNumber="145"/>
                <ItemRef ItemOID="IT.Identifier.BDS.ASEQ" Mandatory="No" OrderNumber="146"/>
                <ItemRef ItemOID="IT.RecordLevelTreatmentDose.BDS.TRTP" Mandatory="No"
                    OrderNumber="147"/>
                <ItemRef ItemOID="IT.RecordLevelTreatmentDose.BDS.TRTPN" Mandatory="No"
                    OrderNumber="148"/>
                <ItemRef ItemOID="IT.RecordLevelTreatmentDose.BDS.TRTA" Mandatory="No"
                    OrderNumber="149"/>
                <ItemRef ItemOID="IT.RecordLevelTreatmentDose.BDS.TRTAN" Mandatory="No"
                    OrderNumber="150"/>
                <ItemRef ItemOID="IT.RecordLevelTreatmentDose.BDS.TRTPGy" Mandatory="No"
                    OrderNumber="151"/>
                <ItemRef ItemOID="IT.RecordLevelTreatmentDose.BDS.TRTPGyN" Mandatory="No"
                    OrderNumber="152"/>
                <ItemRef ItemOID="IT.RecordLevelTreatmentDose.BDS.TRTAGy" Mandatory="No"
                    OrderNumber="153"/>
                <ItemRef ItemOID="IT.RecordLevelTreatmentDose.BDS.TRTAGyN" Mandatory="No"
                    OrderNumber="154"/>
                <ItemRef ItemOID="IT.RecordLevelDose.BDS.DOSEP" Mandatory="No" OrderNumber="155"/>
                <ItemRef ItemOID="IT.RecordLevelDose.BDS.DOSCUMP" Mandatory="No" OrderNumber="156"/>
                <ItemRef ItemOID="IT.RecordLevelDose.BDS.DOSEA" Mandatory="No" OrderNumber="157"/>
                <ItemRef ItemOID="IT.RecordLevelDose.BDS.DOSCUMA" Mandatory="No" OrderNumber="158"/>
                <ItemRef ItemOID="IT.RecordLevelDose.BDS.DOSEU" Mandatory="No" OrderNumber="159"/>
                <ItemRef ItemOID="IT.Timing.BDS.ADT" Mandatory="No" OrderNumber="160"/>
                <ItemRef ItemOID="IT.Timing.BDS.ATM" Mandatory="No" OrderNumber="161"/>
                <ItemRef ItemOID="IT.Timing.BDS.ADTM" Mandatory="No" OrderNumber="162"/>
                <ItemRef ItemOID="IT.Timing.BDS.ADY" Mandatory="No" OrderNumber="163"/>
                <ItemRef ItemOID="IT.Timing.BDS.ADTF" Mandatory="No" OrderNumber="164"/>
                <ItemRef ItemOID="IT.Timing.BDS.ATMF" Mandatory="No" OrderNumber="165"/>
                <ItemRef ItemOID="IT.Timing.BDS.ASTDT" Mandatory="No" OrderNumber="166"/>
                <ItemRef ItemOID="IT.Timing.BDS.ASTTM" Mandatory="No" OrderNumber="167"/>
                <ItemRef ItemOID="IT.Timing.BDS.ASTDTM" Mandatory="No" OrderNumber="168"/>
                <ItemRef ItemOID="IT.Timing.BDS.ASTDY" Mandatory="No" OrderNumber="169"/>
                <ItemRef ItemOID="IT.Timing.BDS.ASTDTF" Mandatory="No" OrderNumber="170"/>
                <ItemRef ItemOID="IT.Timing.BDS.ASTTMF" Mandatory="No" OrderNumber="171"/>
                <ItemRef ItemOID="IT.Timing.BDS.AENDT" Mandatory="No" OrderNumber="172"/>
                <ItemRef ItemOID="IT.Timing.BDS.AENTM" Mandatory="No" OrderNumber="173"/>
                <ItemRef ItemOID="IT.Timing.BDS.AENDTM" Mandatory="No" OrderNumber="174"/>
                <ItemRef ItemOID="IT.Timing.BDS.AENDY" Mandatory="No" OrderNumber="175"/>
                <ItemRef ItemOID="IT.Timing.BDS.AENDTF" Mandatory="No" OrderNumber="176"/>
                <ItemRef ItemOID="IT.Timing.BDS.AENTMF" Mandatory="No" OrderNumber="177"/>
                <ItemRef ItemOID="IT.Timing.BDS.AVISIT" Mandatory="No" OrderNumber="178"/>
                <ItemRef ItemOID="IT.Timing.BDS.AVISITN" Mandatory="No" OrderNumber="179"/>
                <ItemRef ItemOID="IT.Timing.BDS.ATPT" Mandatory="No" OrderNumber="180"/>
                <ItemRef ItemOID="IT.Timing.BDS.ATPTN" Mandatory="No" OrderNumber="181"/>
                <ItemRef ItemOID="IT.Timing.BDS.ATPTREF" Mandatory="No" OrderNumber="182"/>
                <ItemRef ItemOID="IT.Timing.BDS.APHASE" Mandatory="No" OrderNumber="183"/>
                <ItemRef ItemOID="IT.Timing.BDS.APHASEN" Mandatory="No" OrderNumber="184"/>
                <ItemRef ItemOID="IT.Timing.BDS.APERIOD" Mandatory="No" OrderNumber="185"/>
                <ItemRef ItemOID="IT.Timing.BDS.APERIODC" Mandatory="No" OrderNumber="186"/>
                <ItemRef ItemOID="IT.Timing.BDS.ASPER" Mandatory="No" OrderNumber="187"/>
                <ItemRef ItemOID="IT.Timing.BDS.ASPERC" Mandatory="No" OrderNumber="188"/>
                <ItemRef ItemOID="IT.Timing.BDS.ARELTM" Mandatory="No" OrderNumber="189"/>
                <ItemRef ItemOID="IT.Timing.BDS.ARELTMU" Mandatory="No" OrderNumber="190"/>
                <ItemRef ItemOID="IT.PeriodSubperiodPhaseStartEndTiming.BDS.APERSDT" Mandatory="No"
                    OrderNumber="191"/>
                <ItemRef ItemOID="IT.PeriodSubperiodPhaseStartEndTiming.BDS.APERSTM" Mandatory="No"
                    OrderNumber="192"/>
                <ItemRef ItemOID="IT.PeriodSubperiodPhaseStartEndTiming.BDS.APERSDTM" Mandatory="No"
                    OrderNumber="193"/>
                <ItemRef ItemOID="IT.PeriodSubperiodPhaseStartEndTiming.BDS.APERSDTF" Mandatory="No"
                    OrderNumber="194"/>
                <ItemRef ItemOID="IT.PeriodSubperiodPhaseStartEndTiming.BDS.APERSTMF" Mandatory="No"
                    OrderNumber="195"/>
                <ItemRef ItemOID="IT.PeriodSubperiodPhaseStartEndTiming.BDS.APEREDT" Mandatory="No"
                    OrderNumber="196"/>
                <ItemRef ItemOID="IT.PeriodSubperiodPhaseStartEndTiming.BDS.APERETM" Mandatory="No"
                    OrderNumber="197"/>
                <ItemRef ItemOID="IT.PeriodSubperiodPhaseStartEndTiming.BDS.APEREDTM" Mandatory="No"
                    OrderNumber="198"/>
                <ItemRef ItemOID="IT.PeriodSubperiodPhaseStartEndTiming.BDS.APEREDTF" Mandatory="No"
                    OrderNumber="199"/>
                <ItemRef ItemOID="IT.PeriodSubperiodPhaseStartEndTiming.BDS.APERETMF" Mandatory="No"
                    OrderNumber="200"/>
                <ItemRef ItemOID="IT.PeriodSubperiodPhaseStartEndTiming.BDS.ASPRSDT" Mandatory="No"
                    OrderNumber="201"/>
                <ItemRef ItemOID="IT.PeriodSubperiodPhaseStartEndTiming.BDS.ASPRSTM" Mandatory="No"
                    OrderNumber="202"/>
                <ItemRef ItemOID="IT.PeriodSubperiodPhaseStartEndTiming.BDS.ASPRSDTM" Mandatory="No"
                    OrderNumber="203"/>
                <ItemRef ItemOID="IT.PeriodSubperiodPhaseStartEndTiming.BDS.ASPRSDTF" Mandatory="No"
                    OrderNumber="204"/>
                <ItemRef ItemOID="IT.PeriodSubperiodPhaseStartEndTiming.BDS.ASPRSTMF" Mandatory="No"
                    OrderNumber="205"/>
                <ItemRef ItemOID="IT.PeriodSubperiodPhaseStartEndTiming.BDS.ASPREDT" Mandatory="No"
                    OrderNumber="206"/>
                <ItemRef ItemOID="IT.PeriodSubperiodPhaseStartEndTiming.BDS.ASPRETM" Mandatory="No"
                    OrderNumber="207"/>
                <ItemRef ItemOID="IT.PeriodSubperiodPhaseStartEndTiming.BDS.ASPREDTM" Mandatory="No"
                    OrderNumber="208"/>
                <ItemRef ItemOID="IT.PeriodSubperiodPhaseStartEndTiming.BDS.ASPREDTF" Mandatory="No"
                    OrderNumber="209"/>
                <ItemRef ItemOID="IT.PeriodSubperiodPhaseStartEndTiming.BDS.ASPRETMF" Mandatory="No"
                    OrderNumber="210"/>
                <ItemRef ItemOID="IT.PeriodSubperiodPhaseStartEndTiming.BDS.PHSDT" Mandatory="No"
                    OrderNumber="211"/>
                <ItemRef ItemOID="IT.PeriodSubperiodPhaseStartEndTiming.BDS.PHSTM" Mandatory="No"
                    OrderNumber="212"/>
                <ItemRef ItemOID="IT.PeriodSubperiodPhaseStartEndTiming.BDS.PHSDTM" Mandatory="No"
                    OrderNumber="213"/>
                <ItemRef ItemOID="IT.PeriodSubperiodPhaseStartEndTiming.BDS.PHSDTF" Mandatory="No"
                    OrderNumber="214"/>
                <ItemRef ItemOID="IT.PeriodSubperiodPhaseStartEndTiming.BDS.PHSTMF" Mandatory="No"
                    OrderNumber="215"/>
                <ItemRef ItemOID="IT.PeriodSubperiodPhaseStartEndTiming.BDS.PHEDT" Mandatory="No"
                    OrderNumber="216"/>
                <ItemRef ItemOID="IT.PeriodSubperiodPhaseStartEndTiming.BDS.PHETM" Mandatory="No"
                    OrderNumber="217"/>
                <ItemRef ItemOID="IT.PeriodSubperiodPhaseStartEndTiming.BDS.PHEDTM" Mandatory="No"
                    OrderNumber="218"/>
                <ItemRef ItemOID="IT.PeriodSubperiodPhaseStartEndTiming.BDS.PHEDTF" Mandatory="No"
                    OrderNumber="219"/>
                <ItemRef ItemOID="IT.PeriodSubperiodPhaseStartEndTiming.BDS.PHETMF" Mandatory="No"
                    OrderNumber="220"/>
                <ItemRef ItemOID="IT.SuffixesforUserDefinedTiming.BDS.*DT" Mandatory="No"
                    OrderNumber="221"/>
                <ItemRef ItemOID="IT.SuffixesforUserDefinedTiming.BDS.*TM" Mandatory="No"
                    OrderNumber="222"/>
                <ItemRef ItemOID="IT.SuffixesforUserDefinedTiming.BDS.*DTM" Mandatory="No"
                    OrderNumber="223"/>
                <ItemRef ItemOID="IT.SuffixesforUserDefinedTiming.BDS.*ADY" Mandatory="No"
                    OrderNumber="224"/>
                <ItemRef ItemOID="IT.SuffixesforUserDefinedTiming.BDS.*DTF" Mandatory="No"
                    OrderNumber="225"/>
                <ItemRef ItemOID="IT.SuffixesforUserDefinedTiming.BDS.*TMF" Mandatory="No"
                    OrderNumber="226"/>
                <ItemRef ItemOID="IT.SuffixesforUserDefinedTiming.BDS.*SDT" Mandatory="No"
                    OrderNumber="227"/>
                <ItemRef ItemOID="IT.SuffixesforUserDefinedTiming.BDS.*STM" Mandatory="No"
                    OrderNumber="228"/>
                <ItemRef ItemOID="IT.SuffixesforUserDefinedTiming.BDS.*SDTM" Mandatory="No"
                    OrderNumber="229"/>
                <ItemRef ItemOID="IT.SuffixesforUserDefinedTiming.BDS.*SDY" Mandatory="No"
                    OrderNumber="230"/>
                <ItemRef ItemOID="IT.SuffixesforUserDefinedTiming.BDS.*SDTF" Mandatory="No"
                    OrderNumber="231"/>
                <ItemRef ItemOID="IT.SuffixesforUserDefinedTiming.BDS.*STMF" Mandatory="No"
                    OrderNumber="232"/>
                <ItemRef ItemOID="IT.SuffixesforUserDefinedTiming.BDS.*EDT" Mandatory="No"
                    OrderNumber="233"/>
                <ItemRef ItemOID="IT.SuffixesforUserDefinedTiming.BDS.*ETM" Mandatory="No"
                    OrderNumber="234"/>
                <ItemRef ItemOID="IT.SuffixesforUserDefinedTiming.BDS.*EDTM" Mandatory="No"
                    OrderNumber="235"/>
                <ItemRef ItemOID="IT.SuffixesforUserDefinedTiming.BDS.*EDY" Mandatory="No"
                    OrderNumber="236"/>
                <ItemRef ItemOID="IT.SuffixesforUserDefinedTiming.BDS.*EDTF" Mandatory="No"
                    OrderNumber="237"/>
                <ItemRef ItemOID="IT.SuffixesforUserDefinedTiming.BDS.*ETMF" Mandatory="No"
                    OrderNumber="238"/>
                <ItemRef ItemOID="IT.AnalysisParameter.BDS.PARAM" Mandatory="No" OrderNumber="239"/>
                <ItemRef ItemOID="IT.AnalysisParameter.BDS.PARAMCD" Mandatory="No" OrderNumber="240"/>
                <ItemRef ItemOID="IT.AnalysisParameter.BDS.PARAMN" Mandatory="No" OrderNumber="241"/>
                <ItemRef ItemOID="IT.AnalysisParameter.BDS.PARCATy" Mandatory="No" OrderNumber="242"/>
                <ItemRef ItemOID="IT.AnalysisParameter.BDS.PARCATyN" Mandatory="No"
                    OrderNumber="243"/>
                <ItemRef ItemOID="IT.AnalysisParameter.BDS.AVAL" Mandatory="No" OrderNumber="244"/>
                <ItemRef ItemOID="IT.AnalysisParameter.BDS.AVALC" Mandatory="No" OrderNumber="245"/>
                <ItemRef ItemOID="IT.AnalysisParameter.BDS.AVALCATy" Mandatory="No"
                    OrderNumber="246"/>
                <ItemRef ItemOID="IT.AnalysisParameter.BDS.AVALCAyN" Mandatory="No"
                    OrderNumber="247"/>
                <ItemRef ItemOID="IT.AnalysisParameter.BDS.BASE" Mandatory="No" OrderNumber="248"/>
                <ItemRef ItemOID="IT.AnalysisParameter.BDS.BASEC" Mandatory="No" OrderNumber="249"/>
                <ItemRef ItemOID="IT.AnalysisParameter.BDS.BASECATy" Mandatory="No"
                    OrderNumber="250"/>
                <ItemRef ItemOID="IT.AnalysisParameter.BDS.BASECAyN" Mandatory="No"
                    OrderNumber="251"/>
                <ItemRef ItemOID="IT.AnalysisParameter.BDS.BASETYPE" Mandatory="No"
                    OrderNumber="252"/>
                <ItemRef ItemOID="IT.AnalysisParameter.BDS.CHG" Mandatory="No" OrderNumber="253"/>
                <ItemRef ItemOID="IT.AnalysisParameter.BDS.CHGCATy" Mandatory="No" OrderNumber="254"/>
                <ItemRef ItemOID="IT.AnalysisParameter.BDS.CHGCATyN" Mandatory="No"
                    OrderNumber="255"/>
                <ItemRef ItemOID="IT.AnalysisParameter.BDS.PCHG" Mandatory="No" OrderNumber="256"/>
                <ItemRef ItemOID="IT.AnalysisParameter.BDS.PCHGCATy" Mandatory="No"
                    OrderNumber="257"/>
                <ItemRef ItemOID="IT.AnalysisParameter.BDS.PCHGCAyN" Mandatory="No"
                    OrderNumber="258"/>
                <ItemRef ItemOID="IT.AnalysisParameter.BDS.R2BASE" Mandatory="No" OrderNumber="259"/>
                <ItemRef ItemOID="IT.AnalysisParameter.BDS.R2AyLO" Mandatory="No" OrderNumber="260"/>
                <ItemRef ItemOID="IT.AnalysisParameter.BDS.R2AyHI" Mandatory="No" OrderNumber="261"/>
                <ItemRef ItemOID="IT.AnalysisParameter.BDS.SHIFTy" Mandatory="No" OrderNumber="262"/>
                <ItemRef ItemOID="IT.AnalysisParameter.BDS.SHIFTyN" Mandatory="No" OrderNumber="263"/>
                <ItemRef ItemOID="IT.AnalysisParameter.BDS.BCHG" Mandatory="No" OrderNumber="264"/>
                <ItemRef ItemOID="IT.AnalysisParameter.BDS.BCHGCATy" Mandatory="No"
                    OrderNumber="265"/>
                <ItemRef ItemOID="IT.AnalysisParameter.BDS.BCHGCAyN" Mandatory="No"
                    OrderNumber="266"/>
                <ItemRef ItemOID="IT.AnalysisParameter.BDS.PBCHG" Mandatory="No" OrderNumber="267"/>
                <ItemRef ItemOID="IT.AnalysisParameter.BDS.PBCHGCAy" Mandatory="No"
                    OrderNumber="268"/>
                <ItemRef ItemOID="IT.AnalysisParameter.BDS.PBCHGCyN" Mandatory="No"
                    OrderNumber="269"/>
                <ItemRef ItemOID="IT.AnalysisParameterCriteria.BDS.CRITy" Mandatory="No"
                    OrderNumber="270"/>
                <ItemRef ItemOID="IT.AnalysisParameterCriteria.BDS.CRITyFL" Mandatory="No"
                    OrderNumber="271"/>
                <ItemRef ItemOID="IT.AnalysisParameterCriteria.BDS.CRITyFN" Mandatory="No"
                    OrderNumber="272"/>
                <ItemRef ItemOID="IT.AnalysisParameterCriteria.BDS.MCRITy" Mandatory="No"
                    OrderNumber="273"/>
                <ItemRef ItemOID="IT.AnalysisParameterCriteria.BDS.MCRITyML" Mandatory="No"
                    OrderNumber="274"/>
                <ItemRef ItemOID="IT.AnalysisParameterCriteria.BDS.MCRITyMN" Mandatory="No"
                    OrderNumber="275"/>
                <ItemRef ItemOID="IT.AnalysisDescriptor.BDS.DTYPE" Mandatory="No" OrderNumber="276"/>
                <ItemRef ItemOID="IT.AnalysisVisitWindowing.BDS.AWRANGE" Mandatory="No"
                    OrderNumber="277"/>
                <ItemRef ItemOID="IT.AnalysisVisitWindowing.BDS.AWTARGET" Mandatory="No"
                    OrderNumber="278"/>
                <ItemRef ItemOID="IT.AnalysisVisitWindowing.BDS.AWTDIFF" Mandatory="No"
                    OrderNumber="279"/>
                <ItemRef ItemOID="IT.AnalysisVisitWindowing.BDS.AWLO" Mandatory="No"
                    OrderNumber="280"/>
                <ItemRef ItemOID="IT.AnalysisVisitWindowing.BDS.AWHI" Mandatory="No"
                    OrderNumber="281"/>
                <ItemRef ItemOID="IT.AnalysisVisitWindowing.BDS.AWU" Mandatory="No"
                    OrderNumber="282"/>
                <ItemRef ItemOID="IT.TimetoEvent.BDS.STARTDT" Mandatory="No" OrderNumber="283"/>
                <ItemRef ItemOID="IT.TimetoEvent.BDS.STARTDTM" Mandatory="No" OrderNumber="284"/>
                <ItemRef ItemOID="IT.TimetoEvent.BDS.STARTDTF" Mandatory="No" OrderNumber="285"/>
                <ItemRef ItemOID="IT.TimetoEvent.BDS.STARTTMF" Mandatory="No" OrderNumber="286"/>
                <ItemRef ItemOID="IT.TimetoEvent.BDS.CNSR" Mandatory="No" OrderNumber="287"/>
                <ItemRef ItemOID="IT.TimetoEvent.BDS.EVNTDESC" Mandatory="No" OrderNumber="288"/>
                <ItemRef ItemOID="IT.TimetoEvent.BDS.CNSDTDSC" Mandatory="No" OrderNumber="289"/>
                <ItemRef ItemOID="IT.ToxicityRange.BDS.ATOXGR" Mandatory="No" OrderNumber="290"/>
                <ItemRef ItemOID="IT.ToxicityRange.BDS.ATOXGRN" Mandatory="No" OrderNumber="291"/>
                <ItemRef ItemOID="IT.ToxicityRange.BDS.BTOXGR" Mandatory="No" OrderNumber="292"/>
                <ItemRef ItemOID="IT.ToxicityRange.BDS.BTOXGRN" Mandatory="No" OrderNumber="293"/>
                <ItemRef ItemOID="IT.ToxicityRange.BDS.ANRIND" Mandatory="No" OrderNumber="294"/>
                <ItemRef ItemOID="IT.ToxicityRange.BDS.BNRIND" Mandatory="No" OrderNumber="295"/>
                <ItemRef ItemOID="IT.ToxicityRange.BDS.ANRLO" Mandatory="No" OrderNumber="296"/>
                <ItemRef ItemOID="IT.ToxicityRange.BDS.ANRLOC" Mandatory="No" OrderNumber="297"/>
                <ItemRef ItemOID="IT.ToxicityRange.BDS.ANRHI" Mandatory="No" OrderNumber="298"/>
                <ItemRef ItemOID="IT.ToxicityRange.BDS.ANRHIC" Mandatory="No" OrderNumber="299"/>
                <ItemRef ItemOID="IT.ToxicityRange.BDS.AyLO" Mandatory="No" OrderNumber="300"/>
                <ItemRef ItemOID="IT.ToxicityRange.BDS.AyLOC" Mandatory="No" OrderNumber="301"/>
                <ItemRef ItemOID="IT.ToxicityRange.BDS.AyHI" Mandatory="No" OrderNumber="302"/>
                <ItemRef ItemOID="IT.ToxicityRange.BDS.AyHIC" Mandatory="No" OrderNumber="303"/>
                <ItemRef ItemOID="IT.ToxicityRange.BDS.AyIND" Mandatory="No" OrderNumber="304"/>
                <ItemRef ItemOID="IT.ToxicityRange.BDS.ByIND" Mandatory="No" OrderNumber="305"/>
                <ItemRef ItemOID="IT.ToxicityRange.BDS.ATOXGRL" Mandatory="No" OrderNumber="306"/>
                <ItemRef ItemOID="IT.ToxicityRange.BDS.ATOXGRLN" Mandatory="No" OrderNumber="307"/>
                <ItemRef ItemOID="IT.ToxicityRange.BDS.ATOXGRH" Mandatory="No" OrderNumber="308"/>
                <ItemRef ItemOID="IT.ToxicityRange.BDS.ATOXGRHN" Mandatory="No" OrderNumber="309"/>
                <ItemRef ItemOID="IT.ToxicityRange.BDS.BTOXGRL" Mandatory="No" OrderNumber="310"/>
                <ItemRef ItemOID="IT.ToxicityRange.BDS.BTOXGRLN" Mandatory="No" OrderNumber="311"/>
                <ItemRef ItemOID="IT.ToxicityRange.BDS.BTOXGRH" Mandatory="No" OrderNumber="312"/>
                <ItemRef ItemOID="IT.ToxicityRange.BDS.BTOXGRHN" Mandatory="No" OrderNumber="313"/>
                <ItemRef ItemOID="IT.ToxicityRange.BDS.ATOXDSCL" Mandatory="No" OrderNumber="314"/>
                <ItemRef ItemOID="IT.ToxicityRange.BDS.ATOXDSCH" Mandatory="No" OrderNumber="315"/>
                <ItemRef ItemOID="IT.Flag.BDS.ABLFL" Mandatory="No" OrderNumber="316"/>
                <ItemRef ItemOID="IT.Flag.BDS.ABLFN" Mandatory="No" OrderNumber="317"/>
                <ItemRef ItemOID="IT.Flag.BDS.ANLzzFL" Mandatory="No" OrderNumber="318"/>
                <ItemRef ItemOID="IT.Flag.BDS.ANLzzFN" Mandatory="No" OrderNumber="319"/>
                <ItemRef ItemOID="IT.Flag.BDS.ONTRTFL" Mandatory="No" OrderNumber="320"/>
                <ItemRef ItemOID="IT.Flag.BDS.ONTRTFN" Mandatory="No" OrderNumber="321"/>
                <ItemRef ItemOID="IT.Flag.BDS.LVOTFL" Mandatory="No" OrderNumber="322"/>
                <ItemRef ItemOID="IT.Flag.BDS.LVOTFN" Mandatory="No" OrderNumber="323"/>
                <ItemRef ItemOID="IT.DatapointTraceability.BDS.SRCDOM" Mandatory="No"
                    OrderNumber="324"/>
                <ItemRef ItemOID="IT.DatapointTraceability.BDS.SRCVAR" Mandatory="No"
                    OrderNumber="325"/>
                <ItemRef ItemOID="IT.DatapointTraceability.BDS.SRCSEQ" Mandatory="No"
                    OrderNumber="326"/>
                <ItemRef ItemOID="IT.PopulationIndicator.BDS.ITTRFL" Mandatory="No"
                    OrderNumber="327"/>
                <ItemRef ItemOID="IT.PopulationIndicator.BDS.SAFRFL" Mandatory="No"
                    OrderNumber="328"/>
                <ItemRef ItemOID="IT.PopulationIndicator.BDS.FASRFL" Mandatory="No"
                    OrderNumber="329"/>
                <ItemRef ItemOID="IT.PopulationIndicator.BDS.PPROTRFL" Mandatory="No"
                    OrderNumber="330"/>
                <ItemRef ItemOID="IT.PopulationIndicator.BDS.COMPLRFL" Mandatory="No"
                    OrderNumber="331"/>
                <ItemRef ItemOID="IT.PopulationIndicator.BDS.ITTPFL" Mandatory="No"
                    OrderNumber="332"/>
                <ItemRef ItemOID="IT.PopulationIndicator.BDS.SAFPFL" Mandatory="No"
                    OrderNumber="333"/>
                <ItemRef ItemOID="IT.PopulationIndicator.BDS.FASPFL" Mandatory="No"
                    OrderNumber="334"/>
                <ItemRef ItemOID="IT.PopulationIndicator.BDS.PPROTPFL" Mandatory="No"
                    OrderNumber="335"/>
                <ItemRef ItemOID="IT.PopulationIndicator.BDS.COMPLPFL" Mandatory="No"
                    OrderNumber="336"/>
                <def:Class Name="BASIC DATA STRUCTURE"/>
            </ItemGroupDef>
            <ItemDef DataType="text" Name="STUDYID" OID="IT.Identifier.ADSL.STUDYID" mdr:Core="Req"
                mdr:SubmissionDataType="Char" mdr:VariableSet="Identifier">
                <Description>
                    <TranslatedText xml:lang="en">Study Identifier</TranslatedText>
                </Description>
                <mdr:CDISCNotes>
                    <TranslatedText xml:lang="en">DM.STUDYID</TranslatedText>
                </mdr:CDISCNotes>
            </ItemDef>
            <ItemDef DataType="text" Name="USUBJID" OID="IT.Identifier.ADSL.USUBJID" mdr:Core="Req"
                mdr:SubmissionDataType="Char" mdr:VariableSet="Identifier">
                <Description>
                    <TranslatedText xml:lang="en">Unique Subject Identifier</TranslatedText>
                </Description>
                <mdr:CDISCNotes>
                    <TranslatedText xml:lang="en">DM.USUBJID</TranslatedText>
                </mdr:CDISCNotes>
            </ItemDef>
            <ItemDef DataType="text" Name="SUBJID" OID="IT.Identifier.ADSL.SUBJID" mdr:Core="Req"
                mdr:SubmissionDataType="Char" mdr:VariableSet="Identifier">
                <Description>
                    <TranslatedText xml:lang="en">Subject Identifier for the Study</TranslatedText>
                </Description>
                <mdr:CDISCNotes>
                    <TranslatedText xml:lang="en">DM.SUBJID. SUBJID is required in ADSL, but
                        permissible in other datasets.</TranslatedText>
                </mdr:CDISCNotes>
            </ItemDef>
            <ItemDef DataType="text" Name="SITEID" OID="IT.Identifier.ADSL.SITEID" mdr:Core="Req"
                mdr:SubmissionDataType="Char" mdr:VariableSet="Identifier">
                <Description>
                    <TranslatedText xml:lang="en">Study Site Identifier</TranslatedText>
                </Description>
                <mdr:CDISCNotes>
                    <TranslatedText xml:lang="en">DM.SITEID. SITEID is required in ADSL, but
                        permissible in other datasets.</TranslatedText>
                </mdr:CDISCNotes>
            </ItemDef>
            <ItemDef DataType="text" Name="SITEGRy" OID="IT.Identifier.ADSL.SITEGRy" mdr:Core="Perm"
                mdr:SubmissionDataType="Char" mdr:VariableSet="Identifier">
                <Description>
                    <TranslatedText xml:lang="en">Pooled Site Group y</TranslatedText>
                </Description>
                <mdr:CDISCNotes>
                    <TranslatedText xml:lang="en">Character description of a grouping or pooling of
                        clinical sites for analysis purposes. For example, SITEGR3 is the name of a
                        variable containing site group (pooled site) names, where the grouping has
                        been done according to the third site grouping algorithm, defined in
                        variable metadata; SITEGR3 does not mean the third group of
                        sites.</TranslatedText>
                </mdr:CDISCNotes>
            </ItemDef>
            <ItemDef DataType="double" Name="SITEGRyN" OID="IT.Identifier.ADSL.SITEGRyN"
                mdr:Core="Perm" mdr:SubmissionDataType="Num" mdr:VariableSet="Identifier">
                <Description>
                    <TranslatedText xml:lang="en">Pooled Site Group y (N)</TranslatedText>
                </Description>
                <mdr:CDISCNotes>
                    <TranslatedText xml:lang="en">Numeric representation of SITEGRy. There must be a
                        one-to-one relationship between SITEGRyN and SITEGRy within a study.
                        SITEGRyN cannot be present unless SITEGRy is also present. When SITEGRy and
                        SITEGRyN are present, then on a given record, either both must be populated
                        or both must be null.</TranslatedText>
                </mdr:CDISCNotes>
            </ItemDef>
            <ItemDef DataType="text" Name="REGIONy" OID="IT.Identifier.ADSL.REGIONy" mdr:Core="Perm"
                mdr:SubmissionDataType="Char" mdr:VariableSet="Identifier">
                <Description>
                    <TranslatedText xml:lang="en">Geographic Region y</TranslatedText>
                </Description>
                <mdr:CDISCNotes>
                    <TranslatedText xml:lang="en">Character description of geographical region. For
                        example, REGION1 might have values of 'Asia', 'Europe', 'North America',
                        'Rest of World'; REGION2 might have values of 'United States', 'Rest of
                        World'.</TranslatedText>
                </mdr:CDISCNotes>
            </ItemDef>
            <ItemDef DataType="double" Name="REGIONyN" OID="IT.Identifier.ADSL.REGIONyN"
                mdr:Core="Perm" mdr:SubmissionDataType="Num" mdr:VariableSet="Identifier">
                <Description>
                    <TranslatedText xml:lang="en">Geographic Region y (N)</TranslatedText>
                </Description>
                <mdr:CDISCNotes>
                    <TranslatedText xml:lang="en">Numeric representation of REGIONy. Orders REGIONy
                        for analysis and reporting.There must be a one-to-one relationship between
                        REGIONyN and REGIONy within a study. REGIONyN cannot be present unless
                        REGIONy is also present. When REGIONy and REGIONyN are present, then on a
                        given record, either both must be populated or both must be
                        null.</TranslatedText>
                </mdr:CDISCNotes>
            </ItemDef>
            <ItemDef DataType="double" Name="AGE" OID="IT.SubjectDemographics.ADSL.AGE"
                mdr:Core="Req" mdr:SubmissionDataType="Num" mdr:VariableSet="Subject Demographics">
                <Description>
                    <TranslatedText xml:lang="en">Age</TranslatedText>
                </Description>
                <mdr:CDISCNotes>
                    <TranslatedText xml:lang="en">DM.AGE. If analysis needs require a derived age
                        that does not match DM.AGE, then AAGE must be added</TranslatedText>
                </mdr:CDISCNotes>
            </ItemDef>
            <ItemDef DataType="text" Name="AGEU" OID="IT.SubjectDemographics.ADSL.AGEU"
                mdr:Core="Req" mdr:SubmissionDataType="Char" mdr:VariableSet="Subject Demographics">
                <Description>
                    <TranslatedText xml:lang="en">Age Units</TranslatedText>
                </Description>
                <CodeListRef CodeListOID="CL.C66781"/>
                <mdr:CDISCNotes>
                    <TranslatedText xml:lang="en">DM.AGEU</TranslatedText>
                </mdr:CDISCNotes>
            </ItemDef>
            <ItemDef DataType="text" Name="AGEGRy" OID="IT.SubjectDemographics.ADSL.AGEGRy"
                mdr:Core="Perm" mdr:SubmissionDataType="Char" mdr:VariableSet="Subject Demographics">
                <Description>
                    <TranslatedText xml:lang="en">Pooled Age Group y</TranslatedText>
                </Description>
                <mdr:CDISCNotes>
                    <TranslatedText xml:lang="en">Character description of a grouping or pooling of
                        the subject's age for analysis purposes. For example, AGEGR1 might have
                        values of '&lt;18', '18-65', and '&gt;65'; AGEGR2 might have values of 'Less
                        than 35 y old' and 'At least 35 y old'.</TranslatedText>
                </mdr:CDISCNotes>
            </ItemDef>
            <ItemDef DataType="double" Name="AGEGRyN" OID="IT.SubjectDemographics.ADSL.AGEGRyN"
                mdr:Core="Perm" mdr:SubmissionDataType="Num" mdr:VariableSet="Subject Demographics">
                <Description>
                    <TranslatedText xml:lang="en">Pooled Age Group y (N)</TranslatedText>
                </Description>
                <mdr:CDISCNotes>
                    <TranslatedText xml:lang="en">Numeric representation of AGEGRy. Orders the
                        grouping or pooling of subject age for analysis and reporting. There must be
                        a one-to-one relationship between AGEGRyN and AGEGRy within a study. AGEGRyN
                        cannot be present unless AGEGRy is also present. When AGEGRy and AGEGRyN are
                        present, then on a given record, either both must be populated or both must
                        be null.</TranslatedText>
                </mdr:CDISCNotes>
            </ItemDef>
            <ItemDef DataType="double" Name="AAGE" OID="IT.SubjectDemographics.ADSL.AAGE"
                mdr:Core="Cond" mdr:SubmissionDataType="Num" mdr:VariableSet="Subject Demographics">
                <Description>
                    <TranslatedText xml:lang="en">Analysis Age</TranslatedText>
                </Description>
                <mdr:CDISCNotes>
                    <TranslatedText xml:lang="en">Age used for analysis that may be derived
                        differently than DM.AGE. AAGE is required if age is calculated differently
                        than DM.AGE.</TranslatedText>
                </mdr:CDISCNotes>
            </ItemDef>
            <ItemDef DataType="text" Name="SEX" OID="IT.SubjectDemographics.ADSL.SEX" mdr:Core="Req"
                mdr:SubmissionDataType="Char" mdr:VariableSet="Subject Demographics">
                <Description>
                    <TranslatedText xml:lang="en">Sex</TranslatedText>
                </Description>
                <CodeListRef CodeListOID="CL.C66731"/>
                <mdr:CDISCNotes>
                    <TranslatedText xml:lang="en">DM.SEX.</TranslatedText>
                </mdr:CDISCNotes>
            </ItemDef>
            <ItemDef DataType="text" Name="RACE" OID="IT.SubjectDemographics.ADSL.RACE"
                mdr:Core="Req" mdr:SubmissionDataType="Char" mdr:VariableSet="Subject Demographics">
                <Description>
                    <TranslatedText xml:lang="en">Race</TranslatedText>
                </Description>
                <CodeListRef CodeListOID="CL.C74457"/>
                <mdr:CDISCNotes>
                    <TranslatedText xml:lang="en">DM.RACE.</TranslatedText>
                </mdr:CDISCNotes>
            </ItemDef>
            <ItemDef DataType="text" Name="RACEGRy" OID="IT.SubjectDemographics.ADSL.RACEGRy"
                mdr:Core="Perm" mdr:SubmissionDataType="Char" mdr:VariableSet="Subject Demographics">
                <Description>
                    <TranslatedText xml:lang="en">Pooled Race Group y</TranslatedText>
                </Description>
                <mdr:CDISCNotes>
                    <TranslatedText xml:lang="en">Character description of a grouping or pooling of
                        the subject's race for analysis purposes.</TranslatedText>
                </mdr:CDISCNotes>
            </ItemDef>
            <ItemDef DataType="double" Name="RACEGRyN" OID="IT.SubjectDemographics.ADSL.RACEGRyN"
                mdr:Core="Perm" mdr:SubmissionDataType="Num" mdr:VariableSet="Subject Demographics">
                <Description>
                    <TranslatedText xml:lang="en">Pooled Race Group y (N)</TranslatedText>
                </Description>
                <mdr:CDISCNotes>
                    <TranslatedText xml:lang="en">Numeric representation of RACEGRy. Orders the
                        grouping or pooling of subject race for analysis and reporting. There must
                        be a one-to-one relationship between RACEGRyN and RACEGRy within a study.
                        RACEGRyN cannot be present unless RACEGRy is also present. When RACEGRy and
                        RACEGRyN are present, then on a given record, either both must be populated
                        or both must be null.</TranslatedText>
                </mdr:CDISCNotes>
            </ItemDef>
            <ItemDef DataType="text" Name="ARM" OID="IT.Treatment.ADSL.ARM" mdr:Core="Req"
                mdr:SubmissionDataType="Char" mdr:VariableSet="Treatment">
                <Description>
                    <TranslatedText xml:lang="en">Description of Planned Arm</TranslatedText>
                </Description>
                <mdr:CDISCNotes>
                    <TranslatedText xml:lang="en">DM.ARM</TranslatedText>
                </mdr:CDISCNotes>
            </ItemDef>
            <ItemDef DataType="text" Name="ACTARM" OID="IT.Treatment.ADSL.ACTARM" mdr:Core="Perm"
                mdr:SubmissionDataType="Char" mdr:VariableSet="Treatment">
                <Description>
                    <TranslatedText xml:lang="en">Description of Actual Arm</TranslatedText>
                </Description>
                <mdr:CDISCNotes>
                    <TranslatedText xml:lang="en">DM.ACTARM</TranslatedText>
                </mdr:CDISCNotes>
            </ItemDef>
            <ItemDef DataType="text" Name="TRTxxP" OID="IT.Treatment.ADSL.TRTxxP" mdr:Core="Req"
                mdr:SubmissionDataType="Char" mdr:VariableSet="Treatment">
                <Description>
                    <TranslatedText xml:lang="en">Planned Treatment for Period xx</TranslatedText>
                </Description>
                <mdr:CDISCNotes>
                    <TranslatedText xml:lang="en">Subject-level identifier that represents the
                        planned treatment for period xx. In a one-period randomized trial, TRT01P
                        would be the treatment to which the subject was randomized. TRTxxP might be
                        derived from the SDTM DM variable ARM. At least TRT01P is
                        required.</TranslatedText>
                </mdr:CDISCNotes>
            </ItemDef>
            <ItemDef DataType="double" Name="TRTxxPN" OID="IT.Treatment.ADSL.TRTxxPN"
                mdr:Core="Perm" mdr:SubmissionDataType="Num" mdr:VariableSet="Treatment">
                <Description>
                    <TranslatedText xml:lang="en">Planned Treatment for Period xx
                        (N)</TranslatedText>
                </Description>
                <mdr:CDISCNotes>
                    <TranslatedText xml:lang="en">Numeric representation of TRTxxP. There must be a
                        one-to-one relationship between TRTxxPN and TRTxxP within a study. TRTxxPN
                        cannot be present unless TRTxxP is also present. When TRTxxP and TRTxxPN are
                        present, then on a given record, either both must be populated or both must
                        be null.</TranslatedText>
                </mdr:CDISCNotes>
            </ItemDef>
            <ItemDef DataType="text" Name="TRTxxA" OID="IT.Treatment.ADSL.TRTxxA" mdr:Core="Cond"
                mdr:SubmissionDataType="Char" mdr:VariableSet="Treatment">
                <Description>
                    <TranslatedText xml:lang="en">Actual Treatment for Period xx</TranslatedText>
                </Description>
                <mdr:CDISCNotes>
                    <TranslatedText xml:lang="en">Subject-level identifier that represents the
                        actual treatment for the subject for period xx. Required when actual
                        treatment does not match planned and there is an analysis of the data as
                        treated.</TranslatedText>
                </mdr:CDISCNotes>
            </ItemDef>
            <ItemDef DataType="double" Name="TRTxxAN" OID="IT.Treatment.ADSL.TRTxxAN"
                mdr:Core="Perm" mdr:SubmissionDataType="Num" mdr:VariableSet="Treatment">
                <Description>
                    <TranslatedText xml:lang="en">Actual Treatment for Period xx
                        (N)</TranslatedText>
                </Description>
                <mdr:CDISCNotes>
                    <TranslatedText xml:lang="en">Numeric representation of TRTxxA. There must be a
                        one-to-one relationship between TRTxxAN and TRTxxA within a study. TRTxxAN
                        cannot be present unless TRTxxA is also present. When TRTxxA and TRTxxAN are
                        present, then on a given record, either both must be populated or both must
                        be null.</TranslatedText>
                </mdr:CDISCNotes>
            </ItemDef>
            <ItemDef DataType="text" Name="TRTSEQP" OID="IT.Treatment.ADSL.TRTSEQP" mdr:Core="Cond"
                mdr:SubmissionDataType="Char" mdr:VariableSet="Treatment">
                <Description>
                    <TranslatedText xml:lang="en">Planned Sequence of Treatments</TranslatedText>
                </Description>
                <mdr:CDISCNotes>
                    <TranslatedText xml:lang="en">Required when there is an analysis based on the
                        sequence of treatments, for example in a crossover design. TRTSEQP is not
                        necessarily equal to ARM, for example if ARM contains elements that are not
                        relevant to analysis of treatments or ARM is not fully descriptive (e.g.,
                        'GROUP 1,' 'GROUP 2'). When analyzing based on the sequence of treatments,
                        TRTSEQP is required even if identical to ARM.</TranslatedText>
                </mdr:CDISCNotes>
            </ItemDef>
            <ItemDef DataType="double" Name="TRTSEQPN" OID="IT.Treatment.ADSL.TRTSEQPN"
                mdr:Core="Perm" mdr:SubmissionDataType="Num" mdr:VariableSet="Treatment">
                <Description>
                    <TranslatedText xml:lang="en">Planned Sequence of Treatments
                        (N)</TranslatedText>
                </Description>
                <mdr:CDISCNotes>
                    <TranslatedText xml:lang="en">Numeric representation of TRTSEQP. There must be a
                        one-to-one relationship between TRTSEQPN and TRTSEQP within a study.
                        TRTSEQPN cannot be present unless TRTSEQP is also present. When TRTSEQP and
                        TRTSEQPN are present, then on a given record, either both must be populated
                        or both must be null.</TranslatedText>
                </mdr:CDISCNotes>
            </ItemDef>
            <ItemDef DataType="text" Name="TRTSEQA" OID="IT.Treatment.ADSL.TRTSEQA" mdr:Core="Cond"
                mdr:SubmissionDataType="Char" mdr:VariableSet="Treatment">
                <Description>
                    <TranslatedText xml:lang="en">Actual Sequence of Treatments</TranslatedText>
                </Description>
                <mdr:CDISCNotes>
                    <TranslatedText xml:lang="en">TRTSEQA is required if a situation occurred in the
                        conduct of the trial where a subject received a sequence of treatments other
                        than what was planned and there is an analysis based on the sequence of
                        treatments.</TranslatedText>
                </mdr:CDISCNotes>
            </ItemDef>
            <ItemDef DataType="double" Name="TRTSEQAN" OID="IT.Treatment.ADSL.TRTSEQAN"
                mdr:Core="Perm" mdr:SubmissionDataType="Num" mdr:VariableSet="Treatment">
                <Description>
                    <TranslatedText xml:lang="en">Actual Sequence of Treatments (N)</TranslatedText>
                </Description>
                <mdr:CDISCNotes>
                    <TranslatedText xml:lang="en">Numeric representation of TRTSEQA. There must be a
                        one-to-one relationship between TRTSEQAN and TRTSEQA within a study.
                        TRTSEQAN cannot be present unless TRTSEQA is also present. When TRTSEQA and
                        TRTSEQAN are present, then on a given record, either both must be populated
                        or both must be null.</TranslatedText>
                </mdr:CDISCNotes>
            </ItemDef>
            <ItemDef DataType="text" Name="TRxxPGy" OID="IT.Treatment.ADSL.TRxxPGy" mdr:Core="Perm"
                mdr:SubmissionDataType="Char" mdr:VariableSet="Treatment">
                <Description>
                    <TranslatedText xml:lang="en">Planned Pooled Treatment y for Period
                        xx</TranslatedText>
                </Description>
                <mdr:CDISCNotes>
                    <TranslatedText xml:lang="en">Planned pooled treatment y for period xx. Useful
                        when planned treatments (TRTxxP) in the specified period xx are pooled
                        together for analysis according to pooling algorithm y. For example when in
                        period 2 the first pooling algorithm dictates that all doses of Drug A
                        (TR02PG1='All doses of Drug A') are pooled together for comparison to all
                        doses of Drug B (TR02PG1='All doses of Drug B'). Each value of TRTxxP is
                        pooled within at most one value of TRxxPGy.</TranslatedText>
                </mdr:CDISCNotes>
            </ItemDef>
            <ItemDef DataType="double" Name="TRxxPGyN" OID="IT.Treatment.ADSL.TRxxPGyN"
                mdr:Core="Perm" mdr:SubmissionDataType="Num" mdr:VariableSet="Treatment">
                <Description>
                    <TranslatedText xml:lang="en">Planned Pooled Trt y for Period xx
                        (N)</TranslatedText>
                </Description>
                <mdr:CDISCNotes>
                    <TranslatedText xml:lang="en">Numeric representation of TRxxPGy. There must be a
                        one-to-one relationship between TRxxPGyN and TRxxPGy within a study.
                        TRxxPGyN cannot be present unless TRxxPGy is also present. When TRxxPGy and
                        TRxxPGyN are present, then on a given record, either both must be populated
                        or both must be null.</TranslatedText>
                </mdr:CDISCNotes>
            </ItemDef>
            <ItemDef DataType="text" Name="TRxxAGy" OID="IT.Treatment.ADSL.TRxxAGy" mdr:Core="Cond"
                mdr:SubmissionDataType="Char" mdr:VariableSet="Treatment">
                <Description>
                    <TranslatedText xml:lang="en">Actual Pooled Treatment y for Period
                        xx</TranslatedText>
                </Description>
                <mdr:CDISCNotes>
                    <TranslatedText xml:lang="en">Actual pooled treatment y for period xx. Required
                        when TRxxPGy is present and TRTxxA is present.</TranslatedText>
                </mdr:CDISCNotes>
            </ItemDef>
            <ItemDef DataType="double" Name="TRxxAGyN" OID="IT.Treatment.ADSL.TRxxAGyN"
                mdr:Core="Perm" mdr:SubmissionDataType="Num" mdr:VariableSet="Treatment">
                <Description>
                    <TranslatedText xml:lang="en">Actual Pooled Trt y for Period xx
                        (N)</TranslatedText>
                </Description>
                <mdr:CDISCNotes>
                    <TranslatedText xml:lang="en">Numeric representation of TRxxAGy. There must be a
                        one-to-one relationship between TRxxAGyN and TRxxAGy within a study.
                        TRxxAGyN cannot be present unless TRxxAGy is also present. When TRxxAGy and
                        TRxxAGyN are present, then on a given record, either both must be populated
                        or both must be null.</TranslatedText>
                </mdr:CDISCNotes>
            </ItemDef>
            <ItemDef DataType="text" Name="TSEQPGy" OID="IT.Treatment.ADSL.TSEQPGy" mdr:Core="Perm"
                mdr:SubmissionDataType="Char" mdr:VariableSet="Treatment">
                <Description>
                    <TranslatedText xml:lang="en">Planned Pooled Treatment Sequence
                        y</TranslatedText>
                </Description>
                <mdr:CDISCNotes>
                    <TranslatedText xml:lang="en">Planned pooled treatment sequence y. Useful when
                        planned treatment sequences (TRTSEQP) are pooled together for analysis
                        according to pooling algorithm y. For example, this might be used in an
                        analysis of an extension study when the analysis is based on what the
                        subject received in the parent study as well as in the extension
                        study.</TranslatedText>
                </mdr:CDISCNotes>
            </ItemDef>
            <ItemDef DataType="double" Name="TSEQPGyN" OID="IT.Treatment.ADSL.TSEQPGyN"
                mdr:Core="Perm" mdr:SubmissionDataType="Num" mdr:VariableSet="Treatment">
                <Description>
                    <TranslatedText xml:lang="en">Planned Pooled Treatment Sequence y
                        (N)</TranslatedText>
                </Description>
                <mdr:CDISCNotes>
                    <TranslatedText xml:lang="en">Numeric representation of TSEQPGy. There must be a
                        one-to-one relationship between TSEQPGyN and TSEQPGy within a study.
                        TSEQPGyN cannot be present unless TSEQPGy is also present. When TSEQPGy and
                        TSEQPGyN are present, then on a given record, either both must be populated
                        or both must be null.</TranslatedText>
                </mdr:CDISCNotes>
            </ItemDef>
            <ItemDef DataType="text" Name="TSEQAGy" OID="IT.Treatment.ADSL.TSEQAGy" mdr:Core="Cond"
                mdr:SubmissionDataType="Char" mdr:VariableSet="Treatment">
                <Description>
                    <TranslatedText xml:lang="en">Actual Pooled Treatment Sequence
                        y</TranslatedText>
                </Description>
                <mdr:CDISCNotes>
                    <TranslatedText xml:lang="en">Actual pooled treatment sequence y. Required when
                        TSEQPGy is present and TRTSEQA is present.</TranslatedText>
                </mdr:CDISCNotes>
            </ItemDef>
            <ItemDef DataType="double" Name="TSEQAGyN" OID="IT.Treatment.ADSL.TSEQAGyN"
                mdr:Core="Perm" mdr:SubmissionDataType="Num" mdr:VariableSet="Treatment">
                <Description>
                    <TranslatedText xml:lang="en">Actual Pooled Treatment Sequence y
                        (N)</TranslatedText>
                </Description>
                <mdr:CDISCNotes>
                    <TranslatedText xml:lang="en">Numeric representation of TSEQAGy. There must be a
                        one-to-one relationship between TSEQAGyN and TSEQAGy within a study.
                        TSEQAGyN cannot be present unless TSEQAGy is also present. When TSEQAGy and
                        TSEQAGyN are present, then on a given record, either both must be populated
                        or both must be null.</TranslatedText>
                </mdr:CDISCNotes>
            </ItemDef>
            <ItemDef DataType="double" Name="DOSExxP" OID="IT.Dose.ADSL.DOSExxP" mdr:Core="Perm"
                mdr:SubmissionDataType="Num" mdr:VariableSet="Dose">
                <Description>
                    <TranslatedText xml:lang="en">Planned Treatment Dose for Period
                        xx</TranslatedText>
                </Description>
                <mdr:CDISCNotes>
                    <TranslatedText xml:lang="en">Subject-level identifier that represents the
                        planned treatment dosage for period xx.</TranslatedText>
                </mdr:CDISCNotes>
            </ItemDef>
            <ItemDef DataType="double" Name="DOSExxA" OID="IT.Dose.ADSL.DOSExxA" mdr:Core="Perm"
                mdr:SubmissionDataType="Num" mdr:VariableSet="Dose">
                <Description>
                    <TranslatedText xml:lang="en">Actual Treatment Dose for Period
                        xx</TranslatedText>
                </Description>
                <mdr:CDISCNotes>
                    <TranslatedText xml:lang="en">Subject-level identifier that represents the
                        actual treatment dosage for period xx.</TranslatedText>
                </mdr:CDISCNotes>
            </ItemDef>
            <ItemDef DataType="text" Name="DOSExxU" OID="IT.Dose.ADSL.DOSExxU" mdr:Core="Perm"
                mdr:SubmissionDataType="Char" mdr:VariableSet="Dose">
                <Description>
                    <TranslatedText xml:lang="en">Units for Dose for Period xx</TranslatedText>
                </Description>
                <mdr:CDISCNotes>
                    <TranslatedText xml:lang="en">The units for DOSExxP and DOSExxA. It is
                        permissible to use suffixes such as 'P' and 'A' if needed, with labels
                        modified accordingly.</TranslatedText>
                </mdr:CDISCNotes>
            </ItemDef>
            <ItemDef DataType="double" Name="TRTSDT" OID="IT.TreatmentTiming.ADSL.TRTSDT"
                mdr:Core="Cond" mdr:SubmissionDataType="Num" mdr:VariableSet="Treatment Timing">
                <Description>
                    <TranslatedText xml:lang="en">Date of First Exposure to
                        Treatment</TranslatedText>
                </Description>
                <mdr:CDISCNotes>
                    <TranslatedText xml:lang="en">Date of first exposure to treatment for a subject
                        in a study. TRTSDT and/or TRTSDTM are required if there is an
                        investigational product. Note that TRTSDT is not required to have the same
                        value as the SDTM DM variable RFXSTDTC. While both of these dates reflect
                        the concept of first exposure, the ADaM date may be derived to support the
                        analysis which may not necessarily be the very first date in the SDTM EX
                        domain.</TranslatedText>
                </mdr:CDISCNotes>
            </ItemDef>
            <ItemDef DataType="double" Name="TRTSTM" OID="IT.TreatmentTiming.ADSL.TRTSTM"
                mdr:Core="Perm" mdr:SubmissionDataType="Num" mdr:VariableSet="Treatment Timing">
                <Description>
                    <TranslatedText xml:lang="en">Time of First Exposure to
                        Treatment</TranslatedText>
                </Description>
                <mdr:CDISCNotes>
                    <TranslatedText xml:lang="en">Time of first exposure to treatment for a subject
                        in a study.</TranslatedText>
                </mdr:CDISCNotes>
            </ItemDef>
            <ItemDef DataType="double" Name="TRTSDTM" OID="IT.TreatmentTiming.ADSL.TRTSDTM"
                mdr:Core="Cond" mdr:SubmissionDataType="Num" mdr:VariableSet="Treatment Timing">
                <Description>
                    <TranslatedText xml:lang="en">Datetime of First Exposure to
                        Treatment</TranslatedText>
                </Description>
                <mdr:CDISCNotes>
                    <TranslatedText xml:lang="en">Datetime of first exposure to treatment for a
                        subject in a study. TRTSDT and/or TRTSDTM are required if there is an
                        investigational product.</TranslatedText>
                </mdr:CDISCNotes>
            </ItemDef>
            <ItemDef DataType="text" Name="TRTSDTF" OID="IT.TreatmentTiming.ADSL.TRTSDTF"
                mdr:Core="Cond" mdr:SubmissionDataType="Char" mdr:VariableSet="Treatment Timing">
                <Description>
                    <TranslatedText xml:lang="en">Date of First Exposure Imput.
                        Flag</TranslatedText>
                </Description>
                <CodeListRef CodeListOID="CL.C81223"/>
                <mdr:CDISCNotes>
                    <TranslatedText xml:lang="en">The level of imputation of date of first exposure
                        to treatment. If TRTSDT (or the date part of TRTSDTM) was imputed, TRTSDTF
                        must be populated and is required. See Section 3.1.3, Date and Time
                        Imputation Flag Variables.</TranslatedText>
                </mdr:CDISCNotes>
            </ItemDef>
            <ItemDef DataType="text" Name="TRTSTMF" OID="IT.TreatmentTiming.ADSL.TRTSTMF"
                mdr:Core="Cond" mdr:SubmissionDataType="Char" mdr:VariableSet="Treatment Timing">
                <Description>
                    <TranslatedText xml:lang="en">Time of First Exposure Imput.
                        Flag</TranslatedText>
                </Description>
                <CodeListRef CodeListOID="CL.C81226"/>
                <mdr:CDISCNotes>
                    <TranslatedText xml:lang="en">The level of imputation of time of first exposure
                        to treatment. If TRTSTM (or the time part of TRTSDTM) was imputed, TRTSTMF
                        must be populated and is required. See Section 3.1.3, Date and Time
                        Imputation Flag Variables.</TranslatedText>
                </mdr:CDISCNotes>
            </ItemDef>
            <ItemDef DataType="double" Name="TRTEDT" OID="IT.TreatmentTiming.ADSL.TRTEDT"
                mdr:Core="Cond" mdr:SubmissionDataType="Num" mdr:VariableSet="Treatment Timing">
                <Description>
                    <TranslatedText xml:lang="en">Date of Last Exposure to
                        Treatment</TranslatedText>
                </Description>
                <mdr:CDISCNotes>
                    <TranslatedText xml:lang="en">Date of last exposure to treatment for a subject
                        in a study. TRTEDT and/or TRTEDTM are required if there is an
                        investigational product. Note that TRTEDT is not required to have the same
                        value as the SDTM DM variable RFXENDTC. While both of these dates reflect
                        the concept of last exposure, the ADaM date may be derived to support the
                        analysis which may not necessarily be the very last date in the SDTM EX
                        domain.</TranslatedText>
                </mdr:CDISCNotes>
            </ItemDef>
            <ItemDef DataType="double" Name="TRTETM" OID="IT.TreatmentTiming.ADSL.TRTETM"
                mdr:Core="Perm" mdr:SubmissionDataType="Num" mdr:VariableSet="Treatment Timing">
                <Description>
                    <TranslatedText xml:lang="en">Time of Last Exposure to
                        Treatment</TranslatedText>
                </Description>
                <mdr:CDISCNotes>
                    <TranslatedText xml:lang="en">Time of last exposure to treatment for a subject
                        in a study.</TranslatedText>
                </mdr:CDISCNotes>
            </ItemDef>
            <ItemDef DataType="double" Name="TRTEDTM" OID="IT.TreatmentTiming.ADSL.TRTEDTM"
                mdr:Core="Cond" mdr:SubmissionDataType="Num" mdr:VariableSet="Treatment Timing">
                <Description>
                    <TranslatedText xml:lang="en">Datetime of Last Exposure to
                        Treatment</TranslatedText>
                </Description>
                <mdr:CDISCNotes>
                    <TranslatedText xml:lang="en">Datetime of last exposure to treatment for a
                        subject in a study. TRTEDT and/or TRTEDTM are required if there is an
                        investigational product.</TranslatedText>
                </mdr:CDISCNotes>
            </ItemDef>
            <ItemDef DataType="text" Name="TRTEDTF" OID="IT.TreatmentTiming.ADSL.TRTEDTF"
                mdr:Core="Cond" mdr:SubmissionDataType="Char" mdr:VariableSet="Treatment Timing">
                <Description>
                    <TranslatedText xml:lang="en">Date of Last Exposure Imput. Flag</TranslatedText>
                </Description>
                <CodeListRef CodeListOID="CL.C81223"/>
                <mdr:CDISCNotes>
                    <TranslatedText xml:lang="en">The level of imputation of date of last exposure
                        to treatment. If TRTEDT (or the date part of TRTEDTM) was imputed, TRTEDTF
                        must be populated and is required. See Section 3.1.3, Date and Time
                        Imputation Flag Variables.</TranslatedText>
                </mdr:CDISCNotes>
            </ItemDef>
            <ItemDef DataType="text" Name="TRTETMF" OID="IT.TreatmentTiming.ADSL.TRTETMF"
                mdr:Core="Cond" mdr:SubmissionDataType="Char" mdr:VariableSet="Treatment Timing">
                <Description>
                    <TranslatedText xml:lang="en">Time of Last Exposure Imput. Flag</TranslatedText>
                </Description>
                <CodeListRef CodeListOID="CL.C81226"/>
                <mdr:CDISCNotes>
                    <TranslatedText xml:lang="en">The level of imputation of time of last exposure
                        to treatment. If TRTETM (or the time part of TRTEDTM) was imputed, TRTETMF
                        must be populated and is required. See Section 3.1.3, Date and Time
                        Imputation Flag Variables.</TranslatedText>
                </mdr:CDISCNotes>
            </ItemDef>
            <ItemDef DataType="double" Name="TRxxSDT" OID="IT.TreatmentTiming.ADSL.TRxxSDT"
                mdr:Core="Cond" mdr:SubmissionDataType="Num" mdr:VariableSet="Treatment Timing">
                <Description>
                    <TranslatedText xml:lang="en">Date of First Exposure in Period
                        xx</TranslatedText>
                </Description>
                <mdr:CDISCNotes>
                    <TranslatedText xml:lang="en">Date of first exposure to treatment in period xx.
                        TRxxSDT and/or TRxxSDTM are only required in trial designs where multiple
                        treatment periods are defined (i.e., required when there is a TRTxxP other
                        than TRT01P). Examples include crossover designs or designs where multiple
                        periods exist for the same treatment.</TranslatedText>
                </mdr:CDISCNotes>
            </ItemDef>
            <ItemDef DataType="double" Name="TRxxSTM" OID="IT.TreatmentTiming.ADSL.TRxxSTM"
                mdr:Core="Cond" mdr:SubmissionDataType="Num" mdr:VariableSet="Treatment Timing">
                <Description>
                    <TranslatedText xml:lang="en">Time of First Exposure in Period
                        xx</TranslatedText>
                </Description>
                <mdr:CDISCNotes>
                    <TranslatedText xml:lang="en">Starting time of exposure to treatment in period
                        xx. TRxxSTM and/or TRxxSDTM are only required in trial designs where
                        starting time is important to the analysis and multiple treatment periods
                        are defined (i.e., required when there is a TRTxxP other than
                        TRT01P).</TranslatedText>
                </mdr:CDISCNotes>
            </ItemDef>
            <ItemDef DataType="double" Name="TRxxSDTM" OID="IT.TreatmentTiming.ADSL.TRxxSDTM"
                mdr:Core="Cond" mdr:SubmissionDataType="Num" mdr:VariableSet="Treatment Timing">
                <Description>
                    <TranslatedText xml:lang="en">Datetime of First Exposure in Period
                        xx</TranslatedText>
                </Description>
                <mdr:CDISCNotes>
                    <TranslatedText xml:lang="en">Datetime of first exposure to treatment in period
                        xx. TRxxSDTM is only required in trial designs where multiple treatment
                        periods are defined (i.e., required when there is a TRTxxP other than
                        TRT01P).</TranslatedText>
                </mdr:CDISCNotes>
            </ItemDef>
            <ItemDef DataType="text" Name="TRxxSDTF" OID="IT.TreatmentTiming.ADSL.TRxxSDTF"
                mdr:Core="Cond" mdr:SubmissionDataType="Char" mdr:VariableSet="Treatment Timing">
                <Description>
                    <TranslatedText xml:lang="en">Date 1st Exposure Period xx Imput.
                        Flag</TranslatedText>
                </Description>
                <CodeListRef CodeListOID="CL.C81223"/>
                <mdr:CDISCNotes>
                    <TranslatedText xml:lang="en">The level of imputation of date of first exposure
                        to treatment in period xx. If TRxxSDT (or the date part of TRxxSDTM) was
                        imputed, TRxxSDTF must be populated and is required. See Section 3.1.3, Date
                        and Time Imputation Flag Variables.</TranslatedText>
                </mdr:CDISCNotes>
            </ItemDef>
            <ItemDef DataType="text" Name="TRxxSTMF" OID="IT.TreatmentTiming.ADSL.TRxxSTMF"
                mdr:Core="Cond" mdr:SubmissionDataType="Char" mdr:VariableSet="Treatment Timing">
                <Description>
                    <TranslatedText xml:lang="en">Time 1st Exposure Period xx Imput.
                        Flag</TranslatedText>
                </Description>
                <CodeListRef CodeListOID="CL.C81226"/>
                <mdr:CDISCNotes>
                    <TranslatedText xml:lang="en">The level of imputation of time of first exposure
                        to treatment in period xx. If TRxxSTM (or the time part of TRxxSDTM) was
                        imputed, TRxxSTMF must be populated and is required. See Section 3.1.3, Date
                        and Time Imputation Flag Variables.</TranslatedText>
                </mdr:CDISCNotes>
            </ItemDef>
            <ItemDef DataType="double" Name="TRxxEDT" OID="IT.TreatmentTiming.ADSL.TRxxEDT"
                mdr:Core="Cond" mdr:SubmissionDataType="Num" mdr:VariableSet="Treatment Timing">
                <Description>
                    <TranslatedText xml:lang="en">Date of Last Exposure in Period
                        xx</TranslatedText>
                </Description>
                <mdr:CDISCNotes>
                    <TranslatedText xml:lang="en">Date of last exposure to treatment in period xx.
                        TRxxEDT and/or TRxxEDTM are only required in trial designs where multiple
                        treatment periods are defined (i.e., required when there is a TRTxxP other
                        than TRT01P).</TranslatedText>
                </mdr:CDISCNotes>
            </ItemDef>
            <ItemDef DataType="double" Name="TRxxETM" OID="IT.TreatmentTiming.ADSL.TRxxETM"
                mdr:Core="Cond" mdr:SubmissionDataType="Num" mdr:VariableSet="Treatment Timing">
                <Description>
                    <TranslatedText xml:lang="en">Time of Last Exposure in Period
                        xx</TranslatedText>
                </Description>
                <mdr:CDISCNotes>
                    <TranslatedText xml:lang="en">Ending time of exposure to treatment in period xx.
                        TRxxETM and/or TRxxEDTM are only required in trial designs where ending time
                        is important to the analysis and multiple treatment periods are defined
                        (i.e., required when there is a TRTxxP other than TRT01P).</TranslatedText>
                </mdr:CDISCNotes>
            </ItemDef>
            <ItemDef DataType="double" Name="TRxxEDTM" OID="IT.TreatmentTiming.ADSL.TRxxEDTM"
                mdr:Core="Cond" mdr:SubmissionDataType="Num" mdr:VariableSet="Treatment Timing">
                <Description>
                    <TranslatedText xml:lang="en">Datetime of Last Exposure in Period
                        xx</TranslatedText>
                </Description>
                <mdr:CDISCNotes>
                    <TranslatedText xml:lang="en">Datetime of last exposure to treatment in period
                        xx. TRxxEDTM is only required in trial designs where multiple treatment
                        periods are defined (i.e., required when there is a TRTxxP other than
                        TRT01P).</TranslatedText>
                </mdr:CDISCNotes>
            </ItemDef>
            <ItemDef DataType="text" Name="TRxxEDTF" OID="IT.TreatmentTiming.ADSL.TRxxEDTF"
                mdr:Core="Cond" mdr:SubmissionDataType="Char" mdr:VariableSet="Treatment Timing">
                <Description>
                    <TranslatedText xml:lang="en">Date Last Exposure Period xx Imput.
                        Flag</TranslatedText>
                </Description>
                <CodeListRef CodeListOID="CL.C81223"/>
                <mdr:CDISCNotes>
                    <TranslatedText xml:lang="en">The level of imputation of date of last exposure
                        to treatment in period xx. If TRxxEDT (or the date part of TRxxEDTM) was
                        imputed, TRxxEDTF must be populated and is required. See Section 3.1.3, Date
                        and Time Imputation Flag Variables.</TranslatedText>
                </mdr:CDISCNotes>
            </ItemDef>
            <ItemDef DataType="text" Name="TRxxETMF" OID="IT.TreatmentTiming.ADSL.TRxxETMF"
                mdr:Core="Cond" mdr:SubmissionDataType="Char" mdr:VariableSet="Treatment Timing">
                <Description>
                    <TranslatedText xml:lang="en">Time Last Exposure Period xx Imput.
                        Flag</TranslatedText>
                </Description>
                <CodeListRef CodeListOID="CL.C81226"/>
                <mdr:CDISCNotes>
                    <TranslatedText xml:lang="en">The level of imputation of time of last exposure
                        to treatment in period xx. If TRxxETM (or the time part of TRxxEDTM) was
                        imputed, TRxxETMF must be populated and is required. See Section 3.1.3, Date
                        and Time Imputation Flag Variables.</TranslatedText>
                </mdr:CDISCNotes>
            </ItemDef>
            <ItemDef DataType="double" Name="APxxSDT"
                OID="IT.PeriodSubperiodPhaseTiming.ADSL.APxxSDT" mdr:Core="Perm"
                mdr:SubmissionDataType="Num" mdr:VariableSet="Period Subperiod and Phase Timing">
                <Description>
                    <TranslatedText xml:lang="en">Period xx Start Date</TranslatedText>
                </Description>
                <mdr:CDISCNotes>
                    <TranslatedText xml:lang="en">The starting date of period xx.</TranslatedText>
                </mdr:CDISCNotes>
            </ItemDef>
            <ItemDef DataType="double" Name="APxxSTM"
                OID="IT.PeriodSubperiodPhaseTiming.ADSL.APxxSTM" mdr:Core="Perm"
                mdr:SubmissionDataType="Num" mdr:VariableSet="Period Subperiod and Phase Timing">
                <Description>
                    <TranslatedText xml:lang="en">Period xx Start Time</TranslatedText>
                </Description>
                <mdr:CDISCNotes>
                    <TranslatedText xml:lang="en">The starting time of period xx.</TranslatedText>
                </mdr:CDISCNotes>
            </ItemDef>
            <ItemDef DataType="double" Name="APxxSDTM"
                OID="IT.PeriodSubperiodPhaseTiming.ADSL.APxxSDTM" mdr:Core="Perm"
                mdr:SubmissionDataType="Num" mdr:VariableSet="Period Subperiod and Phase Timing">
                <Description>
                    <TranslatedText xml:lang="en">Period xx Start Datetime</TranslatedText>
                </Description>
                <mdr:CDISCNotes>
                    <TranslatedText xml:lang="en">The starting datetime of period
                        xx.</TranslatedText>
                </mdr:CDISCNotes>
            </ItemDef>
            <ItemDef DataType="text" Name="APxxSDTF"
                OID="IT.PeriodSubperiodPhaseTiming.ADSL.APxxSDTF" mdr:Core="Cond"
                mdr:SubmissionDataType="Char" mdr:VariableSet="Period Subperiod and Phase Timing">
                <Description>
                    <TranslatedText xml:lang="en">Period xx Start Date Imput. Flag</TranslatedText>
                </Description>
                <CodeListRef CodeListOID="CL.C81223"/>
                <mdr:CDISCNotes>
                    <TranslatedText xml:lang="en">The level of imputation of period xx start date.
                        See Section 3.1.3, Date and Time Imputation Flag Variables.</TranslatedText>
                </mdr:CDISCNotes>
            </ItemDef>
            <ItemDef DataType="text" Name="APxxSTMF"
                OID="IT.PeriodSubperiodPhaseTiming.ADSL.APxxSTMF" mdr:Core="Cond"
                mdr:SubmissionDataType="Char" mdr:VariableSet="Period Subperiod and Phase Timing">
                <Description>
                    <TranslatedText xml:lang="en">Period xx Start Time Imput. Flag</TranslatedText>
                </Description>
                <CodeListRef CodeListOID="CL.C81226"/>
                <mdr:CDISCNotes>
                    <TranslatedText xml:lang="en">The level of imputation of period xx start time.
                        See Section 3.1.3, Date and Time Imputation Flag Variables.</TranslatedText>
                </mdr:CDISCNotes>
            </ItemDef>
            <ItemDef DataType="double" Name="APxxEDT"
                OID="IT.PeriodSubperiodPhaseTiming.ADSL.APxxEDT" mdr:Core="Perm"
                mdr:SubmissionDataType="Num" mdr:VariableSet="Period Subperiod and Phase Timing">
                <Description>
                    <TranslatedText xml:lang="en">Period xx End Date</TranslatedText>
                </Description>
                <mdr:CDISCNotes>
                    <TranslatedText xml:lang="en">The ending date of period xx.</TranslatedText>
                </mdr:CDISCNotes>
            </ItemDef>
            <ItemDef DataType="double" Name="APxxETM"
                OID="IT.PeriodSubperiodPhaseTiming.ADSL.APxxETM" mdr:Core="Perm"
                mdr:SubmissionDataType="Num" mdr:VariableSet="Period Subperiod and Phase Timing">
                <Description>
                    <TranslatedText xml:lang="en">Period xx End Time</TranslatedText>
                </Description>
                <mdr:CDISCNotes>
                    <TranslatedText xml:lang="en">The ending time of period xx.</TranslatedText>
                </mdr:CDISCNotes>
            </ItemDef>
            <ItemDef DataType="double" Name="APxxEDTM"
                OID="IT.PeriodSubperiodPhaseTiming.ADSL.APxxEDTM" mdr:Core="Perm"
                mdr:SubmissionDataType="Num" mdr:VariableSet="Period Subperiod and Phase Timing">
                <Description>
                    <TranslatedText xml:lang="en">Period xx End Datetime</TranslatedText>
                </Description>
                <mdr:CDISCNotes>
                    <TranslatedText xml:lang="en">The ending datetime of period xx.</TranslatedText>
                </mdr:CDISCNotes>
            </ItemDef>
            <ItemDef DataType="text" Name="APxxEDTF"
                OID="IT.PeriodSubperiodPhaseTiming.ADSL.APxxEDTF" mdr:Core="Cond"
                mdr:SubmissionDataType="Char" mdr:VariableSet="Period Subperiod and Phase Timing">
                <Description>
                    <TranslatedText xml:lang="en">Period xx End Date Imput. Flag</TranslatedText>
                </Description>
                <CodeListRef CodeListOID="CL.C81223"/>
                <mdr:CDISCNotes>
                    <TranslatedText xml:lang="en">The level of imputation of period xx end date. See
                        Section 3.1.3, Date and Time Imputation Flag Variables.</TranslatedText>
                </mdr:CDISCNotes>
            </ItemDef>
            <ItemDef DataType="text" Name="APxxETMF"
                OID="IT.PeriodSubperiodPhaseTiming.ADSL.APxxETMF" mdr:Core="Cond"
                mdr:SubmissionDataType="Char" mdr:VariableSet="Period Subperiod and Phase Timing">
                <Description>
                    <TranslatedText xml:lang="en">Period xx End Time Imput. Flag</TranslatedText>
                </Description>
                <CodeListRef CodeListOID="CL.C81226"/>
                <mdr:CDISCNotes>
                    <TranslatedText xml:lang="en">The level of imputation of period xx end time. See
                        Section 3.1.3, Date and Time Imputation Flag Variables.</TranslatedText>
                </mdr:CDISCNotes>
            </ItemDef>
            <ItemDef DataType="text" Name="PxxSw" OID="IT.PeriodSubperiodPhaseTiming.ADSL.PxxSw"
                mdr:Core="Perm" mdr:SubmissionDataType="Char"
                mdr:VariableSet="Period Subperiod and Phase Timing">
                <Description>
                    <TranslatedText xml:lang="en">Description of Period xx Subperiod
                        w</TranslatedText>
                </Description>
                <mdr:CDISCNotes>
                    <TranslatedText xml:lang="en">Description of analysis subperiod w within period
                        xx.</TranslatedText>
                </mdr:CDISCNotes>
            </ItemDef>
            <ItemDef DataType="double" Name="PxxSwSDT"
                OID="IT.PeriodSubperiodPhaseTiming.ADSL.PxxSwSDT" mdr:Core="Perm"
                mdr:SubmissionDataType="Num" mdr:VariableSet="Period Subperiod and Phase Timing">
                <Description>
                    <TranslatedText xml:lang="en">Period xx Subperiod w Start Date</TranslatedText>
                </Description>
                <mdr:CDISCNotes>
                    <TranslatedText xml:lang="en">The starting date of subperiod w within period
                        xx.</TranslatedText>
                </mdr:CDISCNotes>
            </ItemDef>
            <ItemDef DataType="double" Name="PxxSwSTM"
                OID="IT.PeriodSubperiodPhaseTiming.ADSL.PxxSwSTM" mdr:Core="Perm"
                mdr:SubmissionDataType="Num" mdr:VariableSet="Period Subperiod and Phase Timing">
                <Description>
                    <TranslatedText xml:lang="en">Period xx Subperiod w Start Time</TranslatedText>
                </Description>
                <mdr:CDISCNotes>
                    <TranslatedText xml:lang="en">The starting time of subperiod w within period
                        xx.</TranslatedText>
                </mdr:CDISCNotes>
            </ItemDef>
            <ItemDef DataType="double" Name="PxxSwSDM"
                OID="IT.PeriodSubperiodPhaseTiming.ADSL.PxxSwSDM" mdr:Core="Perm"
                mdr:SubmissionDataType="Num" mdr:VariableSet="Period Subperiod and Phase Timing">
                <Description>
                    <TranslatedText xml:lang="en">Period xx Subperiod w Start
                        Datetime</TranslatedText>
                </Description>
                <mdr:CDISCNotes>
                    <TranslatedText xml:lang="en">The starting datetime of subperiod w within period
                        xx.</TranslatedText>
                </mdr:CDISCNotes>
            </ItemDef>
            <ItemDef DataType="text" Name="PxxSwSDF"
                OID="IT.PeriodSubperiodPhaseTiming.ADSL.PxxSwSDF" mdr:Core="Cond"
                mdr:SubmissionDataType="Char" mdr:VariableSet="Period Subperiod and Phase Timing">
                <Description>
                    <TranslatedText xml:lang="en">Period xx Subper w Start Date Imput
                        Flag</TranslatedText>
                </Description>
                <CodeListRef CodeListOID="CL.C81223"/>
                <mdr:CDISCNotes>
                    <TranslatedText xml:lang="en">The level of imputation of the start date for
                        subperiod w within period xx. See Section 3.1.3, Date and Time Imputation
                        Flag Variables.</TranslatedText>
                </mdr:CDISCNotes>
            </ItemDef>
            <ItemDef DataType="text" Name="PxxSwSTF"
                OID="IT.PeriodSubperiodPhaseTiming.ADSL.PxxSwSTF" mdr:Core="Cond"
                mdr:SubmissionDataType="Char" mdr:VariableSet="Period Subperiod and Phase Timing">
                <Description>
                    <TranslatedText xml:lang="en">Period xx Subper w Start Time Imput
                        Flag</TranslatedText>
                </Description>
                <CodeListRef CodeListOID="CL.C81226"/>
                <mdr:CDISCNotes>
                    <TranslatedText xml:lang="en">The level of imputation of the start time for
                        subperiod w within period xx. See Section 3.1.3, Date and Time Imputation
                        Flag Variables.</TranslatedText>
                </mdr:CDISCNotes>
            </ItemDef>
            <ItemDef DataType="double" Name="PxxSwEDT"
                OID="IT.PeriodSubperiodPhaseTiming.ADSL.PxxSwEDT" mdr:Core="Perm"
                mdr:SubmissionDataType="Num" mdr:VariableSet="Period Subperiod and Phase Timing">
                <Description>
                    <TranslatedText xml:lang="en">Period xx Subperiod w End Date</TranslatedText>
                </Description>
                <mdr:CDISCNotes>
                    <TranslatedText xml:lang="en">The ending date of subperiod w within period
                        xx.</TranslatedText>
                </mdr:CDISCNotes>
            </ItemDef>
            <ItemDef DataType="double" Name="PxxSwETM"
                OID="IT.PeriodSubperiodPhaseTiming.ADSL.PxxSwETM" mdr:Core="Perm"
                mdr:SubmissionDataType="Num" mdr:VariableSet="Period Subperiod and Phase Timing">
                <Description>
                    <TranslatedText xml:lang="en">Period xx Subperiod w End Time</TranslatedText>
                </Description>
                <mdr:CDISCNotes>
                    <TranslatedText xml:lang="en">The ending time of subperiod w within period
                        xx.</TranslatedText>
                </mdr:CDISCNotes>
            </ItemDef>
            <ItemDef DataType="double" Name="PxxSwEDM"
                OID="IT.PeriodSubperiodPhaseTiming.ADSL.PxxSwEDM" mdr:Core="Perm"
                mdr:SubmissionDataType="Num" mdr:VariableSet="Period Subperiod and Phase Timing">
                <Description>
                    <TranslatedText xml:lang="en">Period xx Subperiod w End
                        Datetime</TranslatedText>
                </Description>
                <mdr:CDISCNotes>
                    <TranslatedText xml:lang="en">The ending datetime of subperiod w within period
                        xx.</TranslatedText>
                </mdr:CDISCNotes>
            </ItemDef>
            <ItemDef DataType="text" Name="PxxSwEDF"
                OID="IT.PeriodSubperiodPhaseTiming.ADSL.PxxSwEDF" mdr:Core="Cond"
                mdr:SubmissionDataType="Char" mdr:VariableSet="Period Subperiod and Phase Timing">
                <Description>
                    <TranslatedText xml:lang="en">Period xx Subper w End Date Imput
                        Flag</TranslatedText>
                </Description>
                <CodeListRef CodeListOID="CL.C81223"/>
                <mdr:CDISCNotes>
                    <TranslatedText xml:lang="en">The level of imputation of the end date for
                        subperiod w within period xx. See Section 3.1.3, Date and Time Imputation
                        Flag Variables.</TranslatedText>
                </mdr:CDISCNotes>
            </ItemDef>
            <ItemDef DataType="text" Name="PxxSwETF"
                OID="IT.PeriodSubperiodPhaseTiming.ADSL.PxxSwETF" mdr:Core="Cond"
                mdr:SubmissionDataType="Char" mdr:VariableSet="Period Subperiod and Phase Timing">
                <Description>
                    <TranslatedText xml:lang="en">Period xx Subper w End Time Imput
                        Flag</TranslatedText>
                </Description>
                <CodeListRef CodeListOID="CL.C81226"/>
                <mdr:CDISCNotes>
                    <TranslatedText xml:lang="en">The level of imputation of the end time for
                        subperiod w within period xx. See Section 3.1.3, Date and Time Imputation
                        Flag Variables.</TranslatedText>
                </mdr:CDISCNotes>
            </ItemDef>
            <ItemDef DataType="text" Name="APHASEw" OID="IT.PeriodSubperiodPhaseTiming.ADSL.APHASEw"
                mdr:Core="Perm" mdr:SubmissionDataType="Char"
                mdr:VariableSet="Period Subperiod and Phase Timing">
                <Description>
                    <TranslatedText xml:lang="en">Description of Phase w</TranslatedText>
                </Description>
                <mdr:CDISCNotes>
                    <TranslatedText xml:lang="en">Description of analysis phase w. Analysis phase is
                        independent of TRTxxP within ADSL, and may be populated for spans of time
                        where a subject is not on treatment.</TranslatedText>
                </mdr:CDISCNotes>
            </ItemDef>
            <ItemDef DataType="double" Name="PHwSDT" OID="IT.PeriodSubperiodPhaseTiming.ADSL.PHwSDT"
                mdr:Core="Perm" mdr:SubmissionDataType="Num"
                mdr:VariableSet="Period Subperiod and Phase Timing">
                <Description>
                    <TranslatedText xml:lang="en">Phase w Start Date</TranslatedText>
                </Description>
                <mdr:CDISCNotes>
                    <TranslatedText xml:lang="en">The starting date of phase w.</TranslatedText>
                </mdr:CDISCNotes>
            </ItemDef>
            <ItemDef DataType="double" Name="PHwSTM" OID="IT.PeriodSubperiodPhaseTiming.ADSL.PHwSTM"
                mdr:Core="Perm" mdr:SubmissionDataType="Num"
                mdr:VariableSet="Period Subperiod and Phase Timing">
                <Description>
                    <TranslatedText xml:lang="en">Phase w Start Time</TranslatedText>
                </Description>
                <mdr:CDISCNotes>
                    <TranslatedText xml:lang="en">The starting time of phase w.</TranslatedText>
                </mdr:CDISCNotes>
            </ItemDef>
            <ItemDef DataType="double" Name="PHwSDTM"
                OID="IT.PeriodSubperiodPhaseTiming.ADSL.PHwSDTM" mdr:Core="Perm"
                mdr:SubmissionDataType="Num" mdr:VariableSet="Period Subperiod and Phase Timing">
                <Description>
                    <TranslatedText xml:lang="en">Phase w Start Datetime</TranslatedText>
                </Description>
                <mdr:CDISCNotes>
                    <TranslatedText xml:lang="en">The starting datetime of phase w.</TranslatedText>
                </mdr:CDISCNotes>
            </ItemDef>
            <ItemDef DataType="text" Name="PHwSDTF" OID="IT.PeriodSubperiodPhaseTiming.ADSL.PHwSDTF"
                mdr:Core="Cond" mdr:SubmissionDataType="Char"
                mdr:VariableSet="Period Subperiod and Phase Timing">
                <Description>
                    <TranslatedText xml:lang="en">Phase w Start Date Imputation
                        Flag</TranslatedText>
                </Description>
                <CodeListRef CodeListOID="CL.C81223"/>
                <mdr:CDISCNotes>
                    <TranslatedText xml:lang="en">The level of imputation of the start date for
                        phase w. See Section 3.1.3, Date and Time Imputation Flag
                        Variables.</TranslatedText>
                </mdr:CDISCNotes>
            </ItemDef>
            <ItemDef DataType="text" Name="PHwSTMF" OID="IT.PeriodSubperiodPhaseTiming.ADSL.PHwSTMF"
                mdr:Core="Cond" mdr:SubmissionDataType="Char"
                mdr:VariableSet="Period Subperiod and Phase Timing">
                <Description>
                    <TranslatedText xml:lang="en">Phase w Start Time Imputation
                        Flag</TranslatedText>
                </Description>
                <CodeListRef CodeListOID="CL.C81226"/>
                <mdr:CDISCNotes>
                    <TranslatedText xml:lang="en">The level of imputation of the start time for
                        phase w. See Section 3.1.3, Date and Time Imputation Flag
                        Variables.</TranslatedText>
                </mdr:CDISCNotes>
            </ItemDef>
            <ItemDef DataType="double" Name="PHwEDT" OID="IT.PeriodSubperiodPhaseTiming.ADSL.PHwEDT"
                mdr:Core="Perm" mdr:SubmissionDataType="Num"
                mdr:VariableSet="Period Subperiod and Phase Timing">
                <Description>
                    <TranslatedText xml:lang="en">Phase w End Date</TranslatedText>
                </Description>
                <mdr:CDISCNotes>
                    <TranslatedText xml:lang="en">The ending date of phase w.</TranslatedText>
                </mdr:CDISCNotes>
            </ItemDef>
            <ItemDef DataType="double" Name="PHwETM" OID="IT.PeriodSubperiodPhaseTiming.ADSL.PHwETM"
                mdr:Core="Perm" mdr:SubmissionDataType="Num"
                mdr:VariableSet="Period Subperiod and Phase Timing">
                <Description>
                    <TranslatedText xml:lang="en">Phase w End Time</TranslatedText>
                </Description>
                <mdr:CDISCNotes>
                    <TranslatedText xml:lang="en">The ending time of phase w.</TranslatedText>
                </mdr:CDISCNotes>
            </ItemDef>
            <ItemDef DataType="double" Name="PHwEDTM"
                OID="IT.PeriodSubperiodPhaseTiming.ADSL.PHwEDTM" mdr:Core="Perm"
                mdr:SubmissionDataType="Num" mdr:VariableSet="Period Subperiod and Phase Timing">
                <Description>
                    <TranslatedText xml:lang="en">Phase w End Datetime</TranslatedText>
                </Description>
                <mdr:CDISCNotes>
                    <TranslatedText xml:lang="en">The ending datetime of phase w.</TranslatedText>
                </mdr:CDISCNotes>
            </ItemDef>
            <ItemDef DataType="text" Name="PHwEDTF" OID="IT.PeriodSubperiodPhaseTiming.ADSL.PHwEDTF"
                mdr:Core="Cond" mdr:SubmissionDataType="Char"
                mdr:VariableSet="Period Subperiod and Phase Timing">
                <Description>
                    <TranslatedText xml:lang="en">Phase w End Date Imputation Flag</TranslatedText>
                </Description>
                <CodeListRef CodeListOID="CL.C81223"/>
                <mdr:CDISCNotes>
                    <TranslatedText xml:lang="en">The level of imputation of the end date for phase
                        w. See Section 3.1.3, Date and Time Imputation Flag
                        Variables.</TranslatedText>
                </mdr:CDISCNotes>
            </ItemDef>
            <ItemDef DataType="text" Name="PHwETMF" OID="IT.PeriodSubperiodPhaseTiming.ADSL.PHwETMF"
                mdr:Core="Cond" mdr:SubmissionDataType="Char"
                mdr:VariableSet="Period Subperiod and Phase Timing">
                <Description>
                    <TranslatedText xml:lang="en">Phase w End Time Imputation Flag</TranslatedText>
                </Description>
                <CodeListRef CodeListOID="CL.C81226"/>
                <mdr:CDISCNotes>
                    <TranslatedText xml:lang="en">The level of imputation of the end time for phase
                        w. See Section 3.1.3, Date and Time Imputation Flag
                        Variables.</TranslatedText>
                </mdr:CDISCNotes>
            </ItemDef>
            <ItemDef DataType="text" Name="EOSSTT" OID="IT.TrialExperience.ADSL.EOSSTT"
                mdr:Core="Perm" mdr:SubmissionDataType="Char" mdr:VariableSet="Trial Experience">
                <Description>
                    <TranslatedText xml:lang="en">End of Study Status</TranslatedText>
                </Description>
                <CodeListRef CodeListOID="CL.C124296"/>
                <mdr:CDISCNotes>
                    <TranslatedText xml:lang="en">The subject's status as of the end of study or
                        data cutoff. Examples: COMPLETED, DISCONTINUED, ONGOING.</TranslatedText>
                </mdr:CDISCNotes>
            </ItemDef>
            <ItemDef DataType="double" Name="EOSDT" OID="IT.TrialExperience.ADSL.EOSDT"
                mdr:Core="Perm" mdr:SubmissionDataType="Num" mdr:VariableSet="Trial Experience">
                <Description>
                    <TranslatedText xml:lang="en">End of Study Date</TranslatedText>
                </Description>
                <mdr:CDISCNotes>
                    <TranslatedText xml:lang="en">Date subject ended the study - either date of
                        completion or date of discontinuation or data cutoff date for interim
                        analyses.</TranslatedText>
                </mdr:CDISCNotes>
            </ItemDef>
            <ItemDef DataType="text" Name="DCSREAS" OID="IT.TrialExperience.ADSL.DCSREAS"
                mdr:Core="Perm" mdr:SubmissionDataType="Char" mdr:VariableSet="Trial Experience">
                <Description>
                    <TranslatedText xml:lang="en">Reason for Discontinuation from
                        Study</TranslatedText>
                </Description>
                <mdr:CDISCNotes>
                    <TranslatedText xml:lang="en">Reason for subject's discontinuation from study.
                        The source would most likely be the SDTM DS dataset. Null for subjects who
                        completed the study.</TranslatedText>
                </mdr:CDISCNotes>
            </ItemDef>
            <ItemDef DataType="text" Name="DCSREASP" OID="IT.TrialExperience.ADSL.DCSREASP"
                mdr:Core="Perm" mdr:SubmissionDataType="Char" mdr:VariableSet="Trial Experience">
                <Description>
                    <TranslatedText xml:lang="en">Reason Spec for Discont from
                        Study</TranslatedText>
                </Description>
                <mdr:CDISCNotes>
                    <TranslatedText xml:lang="en">Additional detail regarding subject's
                        discontinuation from study (e.g., description of 'other').</TranslatedText>
                </mdr:CDISCNotes>
            </ItemDef>
            <ItemDef DataType="text" Name="EOTSTT" OID="IT.TrialExperience.ADSL.EOTSTT"
                mdr:Core="Perm" mdr:SubmissionDataType="Char" mdr:VariableSet="Trial Experience">
                <Description>
                    <TranslatedText xml:lang="en">End of Treatment Status</TranslatedText>
                </Description>
                <CodeListRef CodeListOID="CL.C124296"/>
                <mdr:CDISCNotes>
                    <TranslatedText xml:lang="en">The subject's status as of the end of treatment or
                        data cutoff. Examples: COMPLETED, DISCONTINUED, ONGOING.</TranslatedText>
                </mdr:CDISCNotes>
            </ItemDef>
            <ItemDef DataType="text" Name="DCTREAS" OID="IT.TrialExperience.ADSL.DCTREAS"
                mdr:Core="Perm" mdr:SubmissionDataType="Char" mdr:VariableSet="Trial Experience">
                <Description>
                    <TranslatedText xml:lang="en">Reason for Discontinuation of
                        Treatment</TranslatedText>
                </Description>
                <mdr:CDISCNotes>
                    <TranslatedText xml:lang="en">If a subject discontinued treatment in the study,
                        then this variable indicates the reason for discontinuation. This is for
                        discontinuation of treatment in the overall study and not to be used for
                        discontinuation reason within individual treatment periods.</TranslatedText>
                </mdr:CDISCNotes>
            </ItemDef>
            <ItemDef DataType="text" Name="DCTREASP" OID="IT.TrialExperience.ADSL.DCTREASP"
                mdr:Core="Perm" mdr:SubmissionDataType="Char" mdr:VariableSet="Trial Experience">
                <Description>
                    <TranslatedText xml:lang="en">Reason Specify for Discont of
                        Treatment</TranslatedText>
                </Description>
                <mdr:CDISCNotes>
                    <TranslatedText xml:lang="en">Additional detail regarding subject's
                        discontinuation from treatment (e.g., description of
                        'other').</TranslatedText>
                </mdr:CDISCNotes>
            </ItemDef>
            <ItemDef DataType="text" Name="EOTxxSTT" OID="IT.TrialExperience.ADSL.EOTxxSTT"
                mdr:Core="Perm" mdr:SubmissionDataType="Char" mdr:VariableSet="Trial Experience">
                <Description>
                    <TranslatedText xml:lang="en">End of Treatment Status in Period
                        xx</TranslatedText>
                </Description>
                <CodeListRef CodeListOID="CL.C124296"/>
                <mdr:CDISCNotes>
                    <TranslatedText xml:lang="en">The subject's treatment status as of the end of
                        period xx, or data cutoff if within period xx. Examples: COMPLETED,
                        DISCONTINUED, ONGOING.</TranslatedText>
                </mdr:CDISCNotes>
            </ItemDef>
            <ItemDef DataType="text" Name="DCTxxRS" OID="IT.TrialExperience.ADSL.DCTxxRS"
                mdr:Core="Perm" mdr:SubmissionDataType="Char" mdr:VariableSet="Trial Experience">
                <Description>
                    <TranslatedText xml:lang="en">Reason for Discont of Treat in Period
                        xx</TranslatedText>
                </Description>
                <mdr:CDISCNotes>
                    <TranslatedText xml:lang="en">Reason for discontinuing treatment in period
                        xx.</TranslatedText>
                </mdr:CDISCNotes>
            </ItemDef>
            <ItemDef DataType="text" Name="DCTxxRSP" OID="IT.TrialExperience.ADSL.DCTxxRSP"
                mdr:Core="Perm" mdr:SubmissionDataType="Char" mdr:VariableSet="Trial Experience">
                <Description>
                    <TranslatedText xml:lang="en">Reason Spec for Disc of Trt in Period
                        xx</TranslatedText>
                </Description>
                <mdr:CDISCNotes>
                    <TranslatedText xml:lang="en">Additional detail regarding subject's
                        discontinuation of treatment in period xx (e.g., description of
                        'other').</TranslatedText>
                </mdr:CDISCNotes>
            </ItemDef>
            <ItemDef DataType="text" Name="EOPxxSTT" OID="IT.TrialExperience.ADSL.EOPxxSTT"
                mdr:Core="Perm" mdr:SubmissionDataType="Char" mdr:VariableSet="Trial Experience">
                <Description>
                    <TranslatedText xml:lang="en">End of Period xx Status</TranslatedText>
                </Description>
                <CodeListRef CodeListOID="CL.C124296"/>
                <mdr:CDISCNotes>
                    <TranslatedText xml:lang="en">The subject's status as of the end of period xx,
                        or data cutoff if within period xx. Examples: COMPLETED, DISCONTINUED,
                        ONGOING.</TranslatedText>
                </mdr:CDISCNotes>
            </ItemDef>
            <ItemDef DataType="text" Name="DCPxxRS" OID="IT.TrialExperience.ADSL.DCPxxRS"
                mdr:Core="Perm" mdr:SubmissionDataType="Char" mdr:VariableSet="Trial Experience">
                <Description>
                    <TranslatedText xml:lang="en">Reason for Discont from Period xx</TranslatedText>
                </Description>
                <mdr:CDISCNotes>
                    <TranslatedText xml:lang="en">Reason for discontinuing analysis period
                        xx.</TranslatedText>
                </mdr:CDISCNotes>
            </ItemDef>
            <ItemDef DataType="text" Name="DCPxxRSP" OID="IT.TrialExperience.ADSL.DCPxxRSP"
                mdr:Core="Perm" mdr:SubmissionDataType="Char" mdr:VariableSet="Trial Experience">
                <Description>
                    <TranslatedText xml:lang="en">Reason Spec for Discont from Period
                        xx</TranslatedText>
                </Description>
                <mdr:CDISCNotes>
                    <TranslatedText xml:lang="en">Additional detail regarding subject's
                        discontinuation from period xx (e.g., description of
                        'other').</TranslatedText>
                </mdr:CDISCNotes>
            </ItemDef>
            <ItemDef DataType="double" Name="RFICDT" OID="IT.TrialExperience.ADSL.RFICDT"
                mdr:Core="Perm" mdr:SubmissionDataType="Num" mdr:VariableSet="Trial Experience">
                <Description>
                    <TranslatedText xml:lang="en">Date of Informed Consent</TranslatedText>
                </Description>
                <mdr:CDISCNotes>
                    <TranslatedText xml:lang="en">Date subject gave informed consent. Generally
                        equivalent to DM.RFICDTC.</TranslatedText>
                </mdr:CDISCNotes>
            </ItemDef>
            <ItemDef DataType="double" Name="ENRLDT" OID="IT.TrialExperience.ADSL.ENRLDT"
                mdr:Core="Perm" mdr:SubmissionDataType="Num" mdr:VariableSet="Trial Experience">
                <Description>
                    <TranslatedText xml:lang="en">Date of Enrollment</TranslatedText>
                </Description>
                <mdr:CDISCNotes>
                    <TranslatedText xml:lang="en">Date of subject's enrollment into
                        trial.</TranslatedText>
                </mdr:CDISCNotes>
            </ItemDef>
            <ItemDef DataType="double" Name="RANDDT" OID="IT.TrialExperience.ADSL.RANDDT"
                mdr:Core="Cond" mdr:SubmissionDataType="Num" mdr:VariableSet="Trial Experience">
                <Description>
                    <TranslatedText xml:lang="en">Date of Randomization</TranslatedText>
                </Description>
                <mdr:CDISCNotes>
                    <TranslatedText xml:lang="en">Required in randomized trials.</TranslatedText>
                </mdr:CDISCNotes>
            </ItemDef>
            <ItemDef DataType="double" Name="RFICyDT" OID="IT.TrialExperience.ADSL.RFICyDT"
                mdr:Core="Perm" mdr:SubmissionDataType="Num" mdr:VariableSet="Trial Experience">
                <Description>
                    <TranslatedText xml:lang="en">Date of Informed Consent y</TranslatedText>
                </Description>
                <mdr:CDISCNotes>
                    <TranslatedText xml:lang="en">This variable may be used in the case where there
                        are multiple consent dates within a study. This date does not need to repeat
                        the date in RFICDT. 'y' can start with 1 but it is not required to start
                        with 1.</TranslatedText>
                </mdr:CDISCNotes>
            </ItemDef>
            <ItemDef DataType="double" Name="ENRLyDT" OID="IT.TrialExperience.ADSL.ENRLyDT"
                mdr:Core="Perm" mdr:SubmissionDataType="Num" mdr:VariableSet="Trial Experience">
                <Description>
                    <TranslatedText xml:lang="en">Date of Enrollment y</TranslatedText>
                </Description>
                <mdr:CDISCNotes>
                    <TranslatedText xml:lang="en">This variable may be used in the case where there
                        are multiple enrollment dates within a study. This date does not need to
                        repeat the date in ENRLDT. 'y' can start with 1 but it is not required to
                        start with 1.</TranslatedText>
                </mdr:CDISCNotes>
            </ItemDef>
            <ItemDef DataType="double" Name="RANDyDT" OID="IT.TrialExperience.ADSL.RANDyDT"
                mdr:Core="Perm" mdr:SubmissionDataType="Num" mdr:VariableSet="Trial Experience">
                <Description>
                    <TranslatedText xml:lang="en">Date of Randomization y</TranslatedText>
                </Description>
                <mdr:CDISCNotes>
                    <TranslatedText xml:lang="en">This variable may be used in the case where there
                        are multiple randomization dates within a study. This date does not need to
                        repeat the date in RANDDT. 'y' can start with 1 but it is not required to
                        start with 1.</TranslatedText>
                </mdr:CDISCNotes>
            </ItemDef>
            <ItemDef DataType="double" Name="LSTALVDT" OID="IT.TrialExperience.ADSL.LSTALVDT"
                mdr:Core="Perm" mdr:SubmissionDataType="Num" mdr:VariableSet="Trial Experience">
                <Description>
                    <TranslatedText xml:lang="en">Date Last Known Alive</TranslatedText>
                </Description>
                <mdr:CDISCNotes>
                    <TranslatedText xml:lang="en">If this variable is included in ADSL, the best
                        practice is to populate it for everyone. If the derivation for subjects who
                        died differs from the derivation for subjects who are not known to have
                        died, the differences should be noted in metadata.</TranslatedText>
                </mdr:CDISCNotes>
            </ItemDef>
            <ItemDef DataType="double" Name="TRCMP" OID="IT.TrialExperience.ADSL.TRCMP"
                mdr:Core="Perm" mdr:SubmissionDataType="Num" mdr:VariableSet="Trial Experience">
                <Description>
                    <TranslatedText xml:lang="en">Treatment Compliance (%)</TranslatedText>
                </Description>
                <mdr:CDISCNotes>
                    <TranslatedText xml:lang="en">Overall percent compliance with treatment in the
                        trial. TRCMP may be useful for inclusion in ADSL for reasons such as
                        defining subgroups and/or populations.</TranslatedText>
                </mdr:CDISCNotes>
            </ItemDef>
            <ItemDef DataType="text" Name="TRCMPGy" OID="IT.TrialExperience.ADSL.TRCMPGy"
                mdr:Core="Perm" mdr:SubmissionDataType="Char" mdr:VariableSet="Trial Experience">
                <Description>
                    <TranslatedText xml:lang="en">Treatment Compliance (%) Group y</TranslatedText>
                </Description>
                <mdr:CDISCNotes>
                    <TranslatedText xml:lang="en">Grouping 'y' of TRCMP, treatment compliance
                        percentage.</TranslatedText>
                </mdr:CDISCNotes>
            </ItemDef>
            <ItemDef DataType="double" Name="TRCMPGyN" OID="IT.TrialExperience.ADSL.TRCMPGyN"
                mdr:Core="Perm" mdr:SubmissionDataType="Num" mdr:VariableSet="Trial Experience">
                <Description>
                    <TranslatedText xml:lang="en">Treatment Compliance (%) Group y
                        (N)</TranslatedText>
                </Description>
                <mdr:CDISCNotes>
                    <TranslatedText xml:lang="en">Numeric representation of treatment compliance (%)
                        grouping 'y'. There must be a one-to-one relationship between TRCMPGyN and
                        TRCMPGy within a study. TRCMPGyN cannot be present unless TRCMPGy is also
                        present. When TRCMPGy and TRCMPGyN are present, then on a given record,
                        either both must be populated or both must be null.</TranslatedText>
                </mdr:CDISCNotes>
            </ItemDef>
            <ItemDef DataType="double" Name="TRxxDURD" OID="IT.TrialExperience.ADSL.TRxxDURD"
                mdr:Core="Perm" mdr:SubmissionDataType="Num" mdr:VariableSet="Trial Experience">
                <Description>
                    <TranslatedText xml:lang="en">Treatment Duration in Period xx
                        (Days)</TranslatedText>
                </Description>
                <mdr:CDISCNotes>
                    <TranslatedText xml:lang="en">Treatment duration for period xx as measured in
                        days. More than one of TRxxDURD, TRxxDURM, and TRxxDURY can be populated,
                        but each represents the entire duration in its respective
                        units.</TranslatedText>
                </mdr:CDISCNotes>
            </ItemDef>
            <ItemDef DataType="double" Name="TRxxDURM" OID="IT.TrialExperience.ADSL.TRxxDURM"
                mdr:Core="Perm" mdr:SubmissionDataType="Num" mdr:VariableSet="Trial Experience">
                <Description>
                    <TranslatedText xml:lang="en">Treatment Duration in Period xx
                        (Months)</TranslatedText>
                </Description>
                <mdr:CDISCNotes>
                    <TranslatedText xml:lang="en">Treatment duration for period xx, as measure in
                        months. More than one of TRxxDURD, TRxxDURM, and TRxxDURY can be populated,
                        but each represents the entire duration in its respective
                        units.</TranslatedText>
                </mdr:CDISCNotes>
            </ItemDef>
            <ItemDef DataType="double" Name="TRxxDURY" OID="IT.TrialExperience.ADSL.TRxxDURY"
                mdr:Core="Perm" mdr:SubmissionDataType="Num" mdr:VariableSet="Trial Experience">
                <Description>
                    <TranslatedText xml:lang="en">Treatment Duration in Period xx
                        (Years)</TranslatedText>
                </Description>
                <mdr:CDISCNotes>
                    <TranslatedText xml:lang="en">Treatment duration for period xx, as measured in
                        years. More than one of TRxxDURD, TRxxDURM, and TRxxDURY can be populated,
                        but each represents the entire duration in its respective
                        units.</TranslatedText>
                </mdr:CDISCNotes>
            </ItemDef>
            <ItemDef DataType="double" Name="TRTDURD" OID="IT.TrialExperience.ADSL.TRTDURD"
                mdr:Core="Perm" mdr:SubmissionDataType="Num" mdr:VariableSet="Trial Experience">
                <Description>
                    <TranslatedText xml:lang="en">Total Treatment Duration (Days)</TranslatedText>
                </Description>
                <mdr:CDISCNotes>
                    <TranslatedText xml:lang="en">Total treatment duration, as measured in days.
                        More than one of TRTDURD, TRTDURM, and TRTDURY can be populated, but each
                        represents the entire duration in its respective units.</TranslatedText>
                </mdr:CDISCNotes>
            </ItemDef>
            <ItemDef DataType="double" Name="TRTDURM" OID="IT.TrialExperience.ADSL.TRTDURM"
                mdr:Core="Perm" mdr:SubmissionDataType="Num" mdr:VariableSet="Trial Experience">
                <Description>
                    <TranslatedText xml:lang="en">Total Treatment Duration (Months)</TranslatedText>
                </Description>
                <mdr:CDISCNotes>
                    <TranslatedText xml:lang="en">Total treatment duration, as measured in months.
                        More than one of TRTDURD, TRTDURM, and TRTDURY can be populated, but each
                        represents the entire duration in its respective units.</TranslatedText>
                </mdr:CDISCNotes>
            </ItemDef>
            <ItemDef DataType="double" Name="TRTDURY" OID="IT.TrialExperience.ADSL.TRTDURY"
                mdr:Core="Perm" mdr:SubmissionDataType="Num" mdr:VariableSet="Trial Experience">
                <Description>
                    <TranslatedText xml:lang="en">Total Treatment Duration (Years)</TranslatedText>
                </Description>
                <mdr:CDISCNotes>
                    <TranslatedText xml:lang="en">Total treatment duration, as measured in years.
                        More than one of TRTDURD, TRTDURM, and TRTDURY can be populated, but each
                        represents the entire duration in its respective units.</TranslatedText>
                </mdr:CDISCNotes>
            </ItemDef>
            <ItemDef DataType="double" Name="DTHDT" OID="IT.TrialExperience.ADSL.DTHDT"
                mdr:Core="Perm" mdr:SubmissionDataType="Num" mdr:VariableSet="Trial Experience">
                <Description>
                    <TranslatedText xml:lang="en">Date of Death</TranslatedText>
                </Description>
                <mdr:CDISCNotes>
                    <TranslatedText xml:lang="en">Date of subject's death. Derived from
                        DM.DTHDTC.</TranslatedText>
                </mdr:CDISCNotes>
            </ItemDef>
            <ItemDef DataType="text" Name="DTHDTF" OID="IT.TrialExperience.ADSL.DTHDTF"
                mdr:Core="Cond" mdr:SubmissionDataType="Char" mdr:VariableSet="Trial Experience">
                <Description>
                    <TranslatedText xml:lang="en">Date of Death Imputation Flag</TranslatedText>
                </Description>
                <CodeListRef CodeListOID="CL.C81223"/>
                <mdr:CDISCNotes>
                    <TranslatedText xml:lang="en">Imputation flag for date of subject's death. If
                        DTHDT was imputed, DTHDTF must be populated and is required. See Section
                        3.1.3, Date and Time Imputation Flag Variables.</TranslatedText>
                </mdr:CDISCNotes>
            </ItemDef>
            <ItemDef DataType="text" Name="DTHCAUS" OID="IT.TrialExperience.ADSL.DTHCAUS"
                mdr:Core="Perm" mdr:SubmissionDataType="Char" mdr:VariableSet="Trial Experience">
                <Description>
                    <TranslatedText xml:lang="en">Cause of Death</TranslatedText>
                </Description>
                <mdr:CDISCNotes>
                    <TranslatedText xml:lang="en">Cause of Death.</TranslatedText>
                </mdr:CDISCNotes>
            </ItemDef>
            <ItemDef DataType="double" Name="DTHCAUSN" OID="IT.TrialExperience.ADSL.DTHCAUSN"
                mdr:Core="Perm" mdr:SubmissionDataType="Num" mdr:VariableSet="Trial Experience">
                <Description>
                    <TranslatedText xml:lang="en">Cause of Death (N)</TranslatedText>
                </Description>
                <mdr:CDISCNotes>
                    <TranslatedText xml:lang="en">Numeric representation of cause of death. There
                        must be a one-to-one relationship between DTHCAUSN and DTHCAUS within a
                        study. DTHCAUSN cannot be present unless DTHCAUS is also present. When
                        DTHCAUS and DTHCAUSN are present, then on a given record, either both must
                        be populated or both must be null.</TranslatedText>
                </mdr:CDISCNotes>
            </ItemDef>
            <ItemDef DataType="text" Name="DTHCGRy" OID="IT.TrialExperience.ADSL.DTHCGRy"
                mdr:Core="Perm" mdr:SubmissionDataType="Char" mdr:VariableSet="Trial Experience">
                <Description>
                    <TranslatedText xml:lang="en">Cause of Death Group y</TranslatedText>
                </Description>
                <mdr:CDISCNotes>
                    <TranslatedText xml:lang="en">Grouping 'y' of DTHCAUS, the subject's cause of
                        death.</TranslatedText>
                </mdr:CDISCNotes>
            </ItemDef>
            <ItemDef DataType="double" Name="DTHCGRyN" OID="IT.TrialExperience.ADSL.DTHCGRyN"
                mdr:Core="Perm" mdr:SubmissionDataType="Num" mdr:VariableSet="Trial Experience">
                <Description>
                    <TranslatedText xml:lang="en">Cause of Death Group y (N)</TranslatedText>
                </Description>
                <mdr:CDISCNotes>
                    <TranslatedText xml:lang="en">Numeric representation of grouping 'y' of the
                        subject's cause of death. There must be a one-to-one relationship between
                        DTHCGRyN and DTHCGRy within a study. DTHCGyN cannot be present unless DTHCGy
                        is also present. When DTHCGy and DTHCGyN are present, then on a given
                        record, either both must be populated or both must be null.</TranslatedText>
                </mdr:CDISCNotes>
            </ItemDef>
            <ItemDef DataType="text" Name="STRATAR" OID="IT.Stratification.ADSL.STRATAR"
                mdr:Core="Perm" mdr:SubmissionDataType="Char" mdr:VariableSet="Stratification">
                <Description>
                    <TranslatedText xml:lang="en">Strata Used for Randomization</TranslatedText>
                </Description>
                <mdr:CDISCNotes>
                    <TranslatedText xml:lang="en">STRATAR contains the combination of values of the
                        individual stratification factors used for randomization. The exact format
                        should be determined by the sponsor. This variable is intended for studies
                        that use stratified randomization. For example, '&gt;=50, Treatment
                        experienced, N'</TranslatedText>
                </mdr:CDISCNotes>
            </ItemDef>
            <ItemDef DataType="double" Name="STRATARN" OID="IT.Stratification.ADSL.STRATARN"
                mdr:Core="Perm" mdr:SubmissionDataType="Num" mdr:VariableSet="Stratification">
                <Description>
                    <TranslatedText xml:lang="en">Strata Used for Randomization (N)</TranslatedText>
                </Description>
                <mdr:CDISCNotes>
                    <TranslatedText xml:lang="en">Numeric representation of STRATAR. For example,
                        STRATARN=3 when STRATAR='&gt;=50, Treatment experienced, N'. There must be a
                        one-to-one relationship between STRATARN and STRATAR within a study.
                        STRATARN cannot be present unless STRATAR is also present. When STRATAR and
                        STRATARN are present, then on a given record, either both must be populated
                        or both must be null.</TranslatedText>
                </mdr:CDISCNotes>
            </ItemDef>
            <ItemDef DataType="text" Name="STRATwD" OID="IT.Stratification.ADSL.STRATwD"
                mdr:Core="Perm" mdr:SubmissionDataType="Char" mdr:VariableSet="Stratification">
                <Description>
                    <TranslatedText xml:lang="en">Description of Stratification Factor
                        w</TranslatedText>
                </Description>
                <mdr:CDISCNotes>
                    <TranslatedText xml:lang="en">STRATwD is a full text description of the
                        stratification factor 'w'. This text description will remain constant for
                        all subjects. These descriptive variables are included to quickly and
                        clearly communicate critical study design information as well as to
                        facilitate integration. For example, STRAT3D='Hypertension'</TranslatedText>
                </mdr:CDISCNotes>
            </ItemDef>
            <ItemDef DataType="text" Name="STRATwR" OID="IT.Stratification.ADSL.STRATwR"
                mdr:Core="Perm" mdr:SubmissionDataType="Char" mdr:VariableSet="Stratification">
                <Description>
                    <TranslatedText xml:lang="en">Strat Factor w Value Used for
                        Rand</TranslatedText>
                </Description>
                <mdr:CDISCNotes>
                    <TranslatedText xml:lang="en">STRATwR is the subject-level value of the 'w'th'
                        stratification factor used for randomization. For example,
                        STRAT3R='N'</TranslatedText>
                </mdr:CDISCNotes>
            </ItemDef>
            <ItemDef DataType="double" Name="STRATwRN" OID="IT.Stratification.ADSL.STRATwRN"
                mdr:Core="Perm" mdr:SubmissionDataType="Num" mdr:VariableSet="Stratification">
                <Description>
                    <TranslatedText xml:lang="en">Strat Factor w Value Used for Rand
                        (N)</TranslatedText>
                </Description>
                <mdr:CDISCNotes>
                    <TranslatedText xml:lang="en">Numeric representation of STRATwR. For example,
                        STRAT3RN=0 when STRAT3R='N'. There must be a one-to-one relationship between
                        STRATwRN and STRATwR within a study. STRATwRN cannot be present unless
                        STRATwR is also present. When STRATwR and STRATwRN are present, then on a
                        given record, either both must be populated or both must be
                        null.</TranslatedText>
                </mdr:CDISCNotes>
            </ItemDef>
            <ItemDef DataType="text" Name="STRATAV" OID="IT.Stratification.ADSL.STRATAV"
                mdr:Core="Perm" mdr:SubmissionDataType="Char" mdr:VariableSet="Stratification">
                <Description>
                    <TranslatedText xml:lang="en">Strata from Verification Source</TranslatedText>
                </Description>
                <mdr:CDISCNotes>
                    <TranslatedText xml:lang="en">STRATAV contains the entire string value
                        represents the combination of values of the individual stratification
                        factors that should have been used and represents the 'as verified' value.
                        The STRATAV variables are based on the source documentation and are
                        determined after randomization. If the values used for the randomization of
                        a given subject were all correct, then STRATAV will equal STRATAR.
                        Otherwise, one or more components of the text string for STRATAR and STRATAV
                        will be different. The exact format should be determined by the sponsor. For
                        example, '&gt;=50, Treatment experienced, Y'</TranslatedText>
                </mdr:CDISCNotes>
            </ItemDef>
            <ItemDef DataType="double" Name="STRATAVN" OID="IT.Stratification.ADSL.STRATAVN"
                mdr:Core="Perm" mdr:SubmissionDataType="Num" mdr:VariableSet="Stratification">
                <Description>
                    <TranslatedText xml:lang="en">Strata from Verification Source
                        (N)</TranslatedText>
                </Description>
                <mdr:CDISCNotes>
                    <TranslatedText xml:lang="en">Numeric representation of STRATAV. For example,
                        STRATAVN=4 when STRATVR='&gt;=50, Treatment experienced, Y'. There must be a
                        one-to-one relationship between STRATAVN and STRATAV within a study.
                        STRATAVN cannot be present unless STRATAV is also present. When STRATAV and
                        STRATAVN are present, then on a given record, either both must be populated
                        or both must be null.</TranslatedText>
                </mdr:CDISCNotes>
            </ItemDef>
            <ItemDef DataType="text" Name="STRATwV" OID="IT.Stratification.ADSL.STRATwV"
                mdr:Core="Perm" mdr:SubmissionDataType="Char" mdr:VariableSet="Stratification">
                <Description>
                    <TranslatedText xml:lang="en">Strat Factor w Value from Verif
                        Source</TranslatedText>
                </Description>
                <mdr:CDISCNotes>
                    <TranslatedText xml:lang="en">STRATwV is the 'as verified' subject-level value
                        of the 'w'th' stratification factor. If the value based on randomization was
                        correct, then STRATwV will equal STRATwR. For example,
                        STRAT3V='Y'</TranslatedText>
                </mdr:CDISCNotes>
            </ItemDef>
            <ItemDef DataType="double" Name="STRATwVN" OID="IT.Stratification.ADSL.STRATwVN"
                mdr:Core="Perm" mdr:SubmissionDataType="Num" mdr:VariableSet="Stratification">
                <Description>
                    <TranslatedText xml:lang="en">Strat Fact w Val from Verif Source
                        (N)</TranslatedText>
                </Description>
                <mdr:CDISCNotes>
                    <TranslatedText xml:lang="en">Numeric representation of STRATwV. For example,
                        STRAT3VN=1 when STRAT3V='Y'. There must be a one-to-one relationship between
                        STRATwVN and STRATwV within a study. STRATwVN cannot be present unless
                        STRATwV is also present. When STRATwV and STRATwVN are present, then on a
                        given record, either both must be populated or both must be null.
                    </TranslatedText>
                </mdr:CDISCNotes>
            </ItemDef>
            <ItemDef DataType="text" Name="FASFL" OID="IT.PopulationIndicator.ADSL.FASFL"
                mdr:Core="Cond" mdr:SubmissionDataType="Char" mdr:VariableSet="Population Indicator">
                <Description>
                    <TranslatedText xml:lang="en">Full Analysis Set Population Flag</TranslatedText>
                </Description>
                <CodeListRef CodeListOID="CL.FASFL"/>
                <mdr:CDISCNotes>
                    <TranslatedText xml:lang="en">These flags identify whether or not the subject is
                        included in the specified population. A minimum of one subject-level
                        population flag variable is required in ADSL. Not all of the indicators
                        listed here need to be included in ADSL. As stated in Section 3.1.4, Flag
                        Variable Conventions, only those indicators corresponding to populations
                        defined in the statistical analysis plan or populations used as a basis for
                        analysis need be included in ADSL. This list of flags is not meant to be
                        all-inclusive. Additional population flags may be added. The values of
                        subject-level population flags cannot be blank. If a flag is used, the
                        corresponding numeric version (*FN, where 0 = No and 1 = Yes) of the
                        population flag can also be included. Please also refer to Section 3.1.4,
                        Flag Variable Conventions.</TranslatedText>
                </mdr:CDISCNotes>
            </ItemDef>
            <ItemDef DataType="text" Name="SAFFL" OID="IT.PopulationIndicator.ADSL.SAFFL"
                mdr:Core="Cond" mdr:SubmissionDataType="Char" mdr:VariableSet="Population Indicator">
                <Description>
                    <TranslatedText xml:lang="en">Safety Population Flag</TranslatedText>
                </Description>
                <CodeListRef CodeListOID="CL.SAFFL"/>
                <mdr:CDISCNotes>
                    <TranslatedText xml:lang="en">These flags identify whether or not the subject is
                        included in the specified population. A minimum of one subject-level
                        population flag variable is required in ADSL. Not all of the indicators
                        listed here need to be included in ADSL. As stated in Section 3.1.4, Flag
                        Variable Conventions, only those indicators corresponding to populations
                        defined in the statistical analysis plan or populations used as a basis for
                        analysis need be included in ADSL. This list of flags is not meant to be
                        all-inclusive. Additional population flags may be added. The values of
                        subject-level population flags cannot be blank. If a flag is used, the
                        corresponding numeric version (*FN, where 0 = No and 1 = Yes) of the
                        population flag can also be included. Please also refer to Section 3.1.4,
                        Flag Variable Conventions.</TranslatedText>
                </mdr:CDISCNotes>
            </ItemDef>
            <ItemDef DataType="text" Name="ITTFL" OID="IT.PopulationIndicator.ADSL.ITTFL"
                mdr:Core="Cond" mdr:SubmissionDataType="Char" mdr:VariableSet="Population Indicator">
                <Description>
                    <TranslatedText xml:lang="en">Intent-To-Treat Population Flag</TranslatedText>
                </Description>
                <CodeListRef CodeListOID="CL.ITTFL"/>
                <mdr:CDISCNotes>
                    <TranslatedText xml:lang="en">These flags identify whether or not the subject is
                        included in the specified population. A minimum of one subject-level
                        population flag variable is required in ADSL. Not all of the indicators
                        listed here need to be included in ADSL. As stated in Section 3.1.4, Flag
                        Variable Conventions, only those indicators corresponding to populations
                        defined in the statistical analysis plan or populations used as a basis for
                        analysis need be included in ADSL. This list of flags is not meant to be
                        all-inclusive. Additional population flags may be added. The values of
                        subject-level population flags cannot be blank. If a flag is used, the
                        corresponding numeric version (*FN, where 0 = No and 1 = Yes) of the
                        population flag can also be included. Please also refer to Section 3.1.4,
                        Flag Variable Conventions.</TranslatedText>
                </mdr:CDISCNotes>
            </ItemDef>
            <ItemDef DataType="text" Name="PPROTFL" OID="IT.PopulationIndicator.ADSL.PPROTFL"
                mdr:Core="Cond" mdr:SubmissionDataType="Char" mdr:VariableSet="Population Indicator">
                <Description>
                    <TranslatedText xml:lang="en">Per-Protocol Population Flag</TranslatedText>
                </Description>
                <CodeListRef CodeListOID="CL.PPROTFL"/>
                <mdr:CDISCNotes>
                    <TranslatedText xml:lang="en">These flags identify whether or not the subject is
                        included in the specified population. A minimum of one subject-level
                        population flag variable is required in ADSL. Not all of the indicators
                        listed here need to be included in ADSL. As stated in Section 3.1.4, Flag
                        Variable Conventions, only those indicators corresponding to populations
                        defined in the statistical analysis plan or populations used as a basis for
                        analysis need be included in ADSL. This list of flags is not meant to be
                        all-inclusive. Additional population flags may be added. The values of
                        subject-level population flags cannot be blank. If a flag is used, the
                        corresponding numeric version (*FN, where 0 = No and 1 = Yes) of the
                        population flag can also be included. Please also refer to Section 3.1.4,
                        Flag Variable Conventions.</TranslatedText>
                </mdr:CDISCNotes>
            </ItemDef>
            <ItemDef DataType="text" Name="COMPLFL" OID="IT.PopulationIndicator.ADSL.COMPLFL"
                mdr:Core="Cond" mdr:SubmissionDataType="Char" mdr:VariableSet="Population Indicator">
                <Description>
                    <TranslatedText xml:lang="en">Completers Population Flag</TranslatedText>
                </Description>
                <CodeListRef CodeListOID="CL.COMPLFL"/>
                <mdr:CDISCNotes>
                    <TranslatedText xml:lang="en">These flags identify whether or not the subject is
                        included in the specified population. A minimum of one subject-level
                        population flag variable is required in ADSL. Not all of the indicators
                        listed here need to be included in ADSL. As stated in Section 3.1.4, Flag
                        Variable Conventions, only those indicators corresponding to populations
                        defined in the statistical analysis plan or populations used as a basis for
                        analysis need be included in ADSL. This list of flags is not meant to be
                        all-inclusive. Additional population flags may be added. The values of
                        subject-level population flags cannot be blank. If a flag is used, the
                        corresponding numeric version (*FN, where 0 = No and 1 = Yes) of the
                        population flag can also be included. Please also refer to Section 3.1.4,
                        Flag Variable Conventions.</TranslatedText>
                </mdr:CDISCNotes>
            </ItemDef>
            <ItemDef DataType="text" Name="RANDFL" OID="IT.PopulationIndicator.ADSL.RANDFL"
                mdr:Core="Cond" mdr:SubmissionDataType="Char" mdr:VariableSet="Population Indicator">
                <Description>
                    <TranslatedText xml:lang="en">Randomized Population Flag</TranslatedText>
                </Description>
                <CodeListRef CodeListOID="CL.RANDFL"/>
                <mdr:CDISCNotes>
                    <TranslatedText xml:lang="en">These flags identify whether or not the subject is
                        included in the specified population. A minimum of one subject-level
                        population flag variable is required in ADSL. Not all of the indicators
                        listed here need to be included in ADSL. As stated in Section 3.1.4, Flag
                        Variable Conventions, only those indicators corresponding to populations
                        defined in the statistical analysis plan or populations used as a basis for
                        analysis need be included in ADSL. This list of flags is not meant to be
                        all-inclusive. Additional population flags may be added. The values of
                        subject-level population flags cannot be blank. If a flag is used, the
                        corresponding numeric version (*FN, where 0 = No and 1 = Yes) of the
                        population flag can also be included. Please also refer to Section 3.1.4,
                        Flag Variable Conventions.</TranslatedText>
                </mdr:CDISCNotes>
            </ItemDef>
            <ItemDef DataType="text" Name="ENRLFL" OID="IT.PopulationIndicator.ADSL.ENRLFL"
                mdr:Core="Cond" mdr:SubmissionDataType="Char" mdr:VariableSet="Population Indicator">
                <Description>
                    <TranslatedText xml:lang="en">Enrolled Population Flag</TranslatedText>
                </Description>
                <CodeListRef CodeListOID="CL.ENRLFL"/>
                <mdr:CDISCNotes>
                    <TranslatedText xml:lang="en">These flags identify whether or not the subject is
                        included in the specified population. A minimum of one subject-level
                        population flag variable is required in ADSL. Not all of the indicators
                        listed here need to be included in ADSL. As stated in Section 3.1.4, Flag
                        Variable Conventions, only those indicators corresponding to populations
                        defined in the statistical analysis plan or populations used as a basis for
                        analysis need be included in ADSL. This list of flags is not meant to be
                        all-inclusive. Additional population flags may be added. The values of
                        subject-level population flags cannot be blank. If a flag is used, the
                        corresponding numeric version (*FN, where 0 = No and 1 = Yes) of the
                        population flag can also be included. Please also refer to Section 3.1.4,
                        Flag Variable Conventions.</TranslatedText>
                </mdr:CDISCNotes>
            </ItemDef>
            <ItemDef DataType="text" Name="STUDYID" OID="IT.Identifier.BDS.STUDYID" mdr:Core="Req"
                mdr:SubmissionDataType="Char" mdr:VariableSet="Identifier">
                <Description>
                    <TranslatedText xml:lang="en">Study Identifier</TranslatedText>
                </Description>
                <mdr:CDISCNotes>
                    <TranslatedText xml:lang="en">DM.STUDYID, ADSL STUDYID, and/or STUDYID from
                        another ADaM or SDTM dataset appropriate to the analysis.</TranslatedText>
                </mdr:CDISCNotes>
            </ItemDef>
            <ItemDef DataType="text" Name="USUBJID" OID="IT.Identifier.BDS.USUBJID" mdr:Core="Req"
                mdr:SubmissionDataType="Char" mdr:VariableSet="Identifier">
                <Description>
                    <TranslatedText xml:lang="en">Unique Subject Identifier</TranslatedText>
                </Description>
                <mdr:CDISCNotes>
                    <TranslatedText xml:lang="en">DM.USUBJID, ADSL.USUBJID, and/or USUBJID from
                        another ADaM or SDTM dataset appropriate to the analysis.</TranslatedText>
                </mdr:CDISCNotes>
            </ItemDef>
            <ItemDef DataType="text" Name="SUBJID" OID="IT.Identifier.BDS.SUBJID" mdr:Core="Perm"
                mdr:SubmissionDataType="Char" mdr:VariableSet="Identifier">
                <Description>
                    <TranslatedText xml:lang="en">Subject Identifier for the Study</TranslatedText>
                </Description>
                <mdr:CDISCNotes>
                    <TranslatedText xml:lang="en">DM.SUBJID, ADSL.SUBJID, and/or SUBJID from another
                        ADaM dataset appropriate to the analysis. SUBJID is required in ADSL, but
                        permissible in other datasets.</TranslatedText>
                </mdr:CDISCNotes>
            </ItemDef>
            <ItemDef DataType="text" Name="SITEID" OID="IT.Identifier.BDS.SITEID" mdr:Core="Perm"
                mdr:SubmissionDataType="Char" mdr:VariableSet="Identifier">
                <Description>
                    <TranslatedText xml:lang="en">Study Site Identifier</TranslatedText>
                </Description>
                <mdr:CDISCNotes>
                    <TranslatedText xml:lang="en">DM.SITEID, ADSL.SITEID, and/or SITEID from another
                        ADaM dataset appropriate to the analysis. SITEID is required in ADSL, but
                        permissible in other datasets.</TranslatedText>
                </mdr:CDISCNotes>
            </ItemDef>
            <ItemDef DataType="double" Name="ASEQ" OID="IT.Identifier.BDS.ASEQ" mdr:Core="Perm"
                mdr:SubmissionDataType="Num" mdr:VariableSet="Identifier">
                <Description>
                    <TranslatedText xml:lang="en">Analysis Sequence Number</TranslatedText>
                </Description>
                <mdr:CDISCNotes>
                    <TranslatedText xml:lang="en">Sequence number given to ensure uniqueness of
                        subject records within an ADaM dataset. As long as values are unique within
                        a subject within the dataset, any valid number can be used for ASEQ. ASEQ
                        uniquely indexes records within a subject within an ADaM dataset. ASEQ is
                        useful for traceability when the dataset is used as input to another ADaM
                        dataset. To refer to a record in a predecessor ADaM dataset, set SRCDOM to
                        the name of the predecessor dataset, and set SRCSEQ to the value of ASEQ in
                        the predecessor dataset.</TranslatedText>
                </mdr:CDISCNotes>
            </ItemDef>
            <ItemDef DataType="text" Name="TRTP" OID="IT.RecordLevelTreatmentDose.BDS.TRTP"
                mdr:Core="Cond" mdr:SubmissionDataType="Char"
                mdr:VariableSet="Record-Level Treatment and Dose">
                <Description>
                    <TranslatedText xml:lang="en">Planned Treatment</TranslatedText>
                </Description>
                <mdr:CDISCNotes>
                    <TranslatedText xml:lang="en">TRTP is a record-level identifier that represents
                        the planned treatment attributed to a record for analysis purposes. TRTP
                        indicates how treatment varies by record within a subject and enables
                        analysis of crossover and other designs. Though there is no requirement that
                        TRTP will correspond to the TRTxxP as defined by the record's value of
                        APERIOD, if populated, TRTP must match at least one value of the character
                        planned treatment variables in ADSL (e.g., TRTxxP, TRTSEQP, TRxxPGy). As
                        noted previously, at least one treatment variable is required even in
                        non-randomized trials. This requirement is satisfied by any subject-level or
                        record-level treatment variables (e.g., TRTxxP, TRTP, TRTA). Even if not
                        used for analysis, any ADSL treatment variable may be included in the BDS
                        dataset.</TranslatedText>
                </mdr:CDISCNotes>
            </ItemDef>
            <ItemDef DataType="double" Name="TRTPN" OID="IT.RecordLevelTreatmentDose.BDS.TRTPN"
                mdr:Core="Perm" mdr:SubmissionDataType="Num"
                mdr:VariableSet="Record-Level Treatment and Dose">
                <Description>
                    <TranslatedText xml:lang="en">Planned Treatment (N)</TranslatedText>
                </Description>
                <mdr:CDISCNotes>
                    <TranslatedText xml:lang="en">Numeric representation of TRTP. There must be a
                        one-to-one relationship between TRTPN and TRTP within a study. TRTPN cannot
                        be present unless TRTP is also present. When TRTP and TRTPN are present,
                        then on a given record, either both must be populated or both must be
                        null.</TranslatedText>
                </mdr:CDISCNotes>
            </ItemDef>
            <ItemDef DataType="text" Name="TRTA" OID="IT.RecordLevelTreatmentDose.BDS.TRTA"
                mdr:Core="Cond" mdr:SubmissionDataType="Char"
                mdr:VariableSet="Record-Level Treatment and Dose">
                <Description>
                    <TranslatedText xml:lang="en">Actual Treatment</TranslatedText>
                </Description>
                <mdr:CDISCNotes>
                    <TranslatedText xml:lang="en">TRTA is a record-level identifier that represents
                        the actual treatment attributed to a record for analysis purposes. TRTA
                        indicates how treatment varies by record within a subject and enables
                        analysis of crossover and other multi-period designs. Though there is no
                        requirement that TRTA will correspond to the TRTxxA as defined by the
                        record's value of APERIOD, TRTA must match at least one value of the
                        character actual treatment variables in ADSL (e.g., TRTxxA, TRTSEQA,
                        TRxxAGy). As noted previously, at least one treatment variable is required.
                        This requirement is satisfied by any subject-level or record-level treatment
                        variables (e.g., TRTxxP, TRTP, TRTA). Even if not used for analysis, any
                        ADSL treatment variable may be included in the BDS dataset.</TranslatedText>
                </mdr:CDISCNotes>
            </ItemDef>
            <ItemDef DataType="double" Name="TRTAN" OID="IT.RecordLevelTreatmentDose.BDS.TRTAN"
                mdr:Core="Perm" mdr:SubmissionDataType="Num"
                mdr:VariableSet="Record-Level Treatment and Dose">
                <Description>
                    <TranslatedText xml:lang="en">Actual Treatment (N)</TranslatedText>
                </Description>
                <mdr:CDISCNotes>
                    <TranslatedText xml:lang="en">Numeric representation of TRTA. There must be a
                        one-to-one relationship between TRTAN and TRTA within a study. TRTAN cannot
                        be present unless TRTA is also present. When TRTA and TRTAN are present,
                        then on a given record, either both must be populated or both must be
                        null.</TranslatedText>
                </mdr:CDISCNotes>
            </ItemDef>
            <ItemDef DataType="text" Name="TRTPGy" OID="IT.RecordLevelTreatmentDose.BDS.TRTPGy"
                mdr:Core="Perm" mdr:SubmissionDataType="Char"
                mdr:VariableSet="Record-Level Treatment and Dose">
                <Description>
                    <TranslatedText xml:lang="en">Planned Pooled Treatment y</TranslatedText>
                </Description>
                <mdr:CDISCNotes>
                    <TranslatedText xml:lang="en">TRTPGy is the planned pooled treatment y
                        attributed to a record for analysis purposes. 'y' represents an integer
                        [1-99, not zero-padded] corresponding to a particular pooling scheme. Useful
                        when planned treatments (TRTP) are pooled together for analysis, for example
                        when all doses of Drug A (TRTPG1=All doses of Drug A) are compared to all
                        doses of Drug B (TRTPG1=All doses of Drug B). Each value of TRTP is pooled
                        within at most one value of TRTPGy.</TranslatedText>
                </mdr:CDISCNotes>
            </ItemDef>
            <ItemDef DataType="double" Name="TRTPGyN" OID="IT.RecordLevelTreatmentDose.BDS.TRTPGyN"
                mdr:Core="Perm" mdr:SubmissionDataType="Num"
                mdr:VariableSet="Record-Level Treatment and Dose">
                <Description>
                    <TranslatedText xml:lang="en">Planned Pooled Treatment y (N)</TranslatedText>
                </Description>
                <mdr:CDISCNotes>
                    <TranslatedText xml:lang="en">Numeric representation of TRTPGy. There must be a
                        one-to-one relationship between TRTPGyN and TRTPGy within a study. TRTPGyN
                        cannot be present unless TRTPGy is also present. When TRTPGy and TRTPGyN are
                        present, then on a given record, either both must be populated or both must
                        be null.</TranslatedText>
                </mdr:CDISCNotes>
            </ItemDef>
            <ItemDef DataType="text" Name="TRTAGy" OID="IT.RecordLevelTreatmentDose.BDS.TRTAGy"
                mdr:Core="Cond" mdr:SubmissionDataType="Char"
                mdr:VariableSet="Record-Level Treatment and Dose">
                <Description>
                    <TranslatedText xml:lang="en">Actual Pooled Treatment y</TranslatedText>
                </Description>
                <mdr:CDISCNotes>
                    <TranslatedText xml:lang="en">TRTAGy is the actual pooled treatment y attributed
                        to a record for analysis purposes. 'y' represents an integer [1-99, not
                        zero-padded] corresponding to a particular pooling scheme. Required when
                        TRTPGy is present and TRTA is present.</TranslatedText>
                </mdr:CDISCNotes>
            </ItemDef>
            <ItemDef DataType="double" Name="TRTAGyN" OID="IT.RecordLevelTreatmentDose.BDS.TRTAGyN"
                mdr:Core="Perm" mdr:SubmissionDataType="Num"
                mdr:VariableSet="Record-Level Treatment and Dose">
                <Description>
                    <TranslatedText xml:lang="en">Actual Pooled Treatment y (N)</TranslatedText>
                </Description>
                <mdr:CDISCNotes>
                    <TranslatedText xml:lang="en">Numeric representation of TRTAGy. There must be a
                        one-to-one relationship between TRTAGyN and TRTAGy within a study. TRTAGyN
                        cannot be present unless TRTAGy is also present. When TRTAGy and TRTAGyN are
                        present, then on a given record, either both must be populated or both must
                        be null.</TranslatedText>
                </mdr:CDISCNotes>
            </ItemDef>
            <ItemDef DataType="double" Name="DOSEP" OID="IT.RecordLevelDose.BDS.DOSEP"
                mdr:Core="Perm" mdr:SubmissionDataType="Num" mdr:VariableSet="Record-Level Dose">
                <Description>
                    <TranslatedText xml:lang="en">Planned Treatment Dose</TranslatedText>
                </Description>
                <mdr:CDISCNotes>
                    <TranslatedText xml:lang="en">DOSEP represents the planned treatment dosage
                        associated with the record.</TranslatedText>
                </mdr:CDISCNotes>
            </ItemDef>
            <ItemDef DataType="double" Name="DOSCUMP" OID="IT.RecordLevelDose.BDS.DOSCUMP"
                mdr:Core="Perm" mdr:SubmissionDataType="Num" mdr:VariableSet="Record-Level Dose">
                <Description>
                    <TranslatedText xml:lang="en">Cumulative Planned Treatment Dose</TranslatedText>
                </Description>
                <mdr:CDISCNotes>
                    <TranslatedText xml:lang="en">Cumulative planned dosage of treatment for the
                        subject at the point in time of the record (e.g., ADT).</TranslatedText>
                </mdr:CDISCNotes>
            </ItemDef>
            <ItemDef DataType="double" Name="DOSEA" OID="IT.RecordLevelDose.BDS.DOSEA"
                mdr:Core="Perm" mdr:SubmissionDataType="Num" mdr:VariableSet="Record-Level Dose">
                <Description>
                    <TranslatedText xml:lang="en">Actual Treatment Dose</TranslatedText>
                </Description>
                <mdr:CDISCNotes>
                    <TranslatedText xml:lang="en">DOSEA represents the actual treatment dosage
                        associated with the record.</TranslatedText>
                </mdr:CDISCNotes>
            </ItemDef>
            <ItemDef DataType="double" Name="DOSCUMA" OID="IT.RecordLevelDose.BDS.DOSCUMA"
                mdr:Core="Perm" mdr:SubmissionDataType="Num" mdr:VariableSet="Record-Level Dose">
                <Description>
                    <TranslatedText xml:lang="en">Cumulative Actual Treatment Dose</TranslatedText>
                </Description>
                <mdr:CDISCNotes>
                    <TranslatedText xml:lang="en">Cumulative actual dosage of treatment for the
                        subject at the point in time of the record (e.g., ADT).</TranslatedText>
                </mdr:CDISCNotes>
            </ItemDef>
            <ItemDef DataType="text" Name="DOSEU" OID="IT.RecordLevelDose.BDS.DOSEU" mdr:Core="Perm"
                mdr:SubmissionDataType="Char" mdr:VariableSet="Record-Level Dose">
                <Description>
                    <TranslatedText xml:lang="en">Treatment Dose Units</TranslatedText>
                </Description>
                <mdr:CDISCNotes>
                    <TranslatedText xml:lang="en">The units for DOSEP, DOSCUMP, DOSEA, and DOSCUMA.
                        It is permissible to use suffixes such as 'P' and 'A' if needed, with labels
                        modified accordingly.</TranslatedText>
                </mdr:CDISCNotes>
            </ItemDef>
            <ItemDef DataType="double" Name="ADT" OID="IT.Timing.BDS.ADT" mdr:Core="Perm"
                mdr:SubmissionDataType="Num" mdr:VariableSet="Timing">
                <Description>
                    <TranslatedText xml:lang="en">Analysis Date</TranslatedText>
                </Description>
                <mdr:CDISCNotes>
                    <TranslatedText xml:lang="en">The date associated with AVAL and/or AVALC in
                        numeric format.</TranslatedText>
                </mdr:CDISCNotes>
            </ItemDef>
            <ItemDef DataType="double" Name="ATM" OID="IT.Timing.BDS.ATM" mdr:Core="Perm"
                mdr:SubmissionDataType="Num" mdr:VariableSet="Timing">
                <Description>
                    <TranslatedText xml:lang="en">Analysis Time</TranslatedText>
                </Description>
                <mdr:CDISCNotes>
                    <TranslatedText xml:lang="en">The time associated with AVAL and/or AVALC in
                        numeric format.</TranslatedText>
                </mdr:CDISCNotes>
            </ItemDef>
            <ItemDef DataType="double" Name="ADTM" OID="IT.Timing.BDS.ADTM" mdr:Core="Perm"
                mdr:SubmissionDataType="Num" mdr:VariableSet="Timing">
                <Description>
                    <TranslatedText xml:lang="en">Analysis Datetime</TranslatedText>
                </Description>
                <mdr:CDISCNotes>
                    <TranslatedText xml:lang="en">The datetime associated with AVAL and/or AVALC in
                        numeric format.</TranslatedText>
                </mdr:CDISCNotes>
            </ItemDef>
            <ItemDef DataType="double" Name="ADY" OID="IT.Timing.BDS.ADY" mdr:Core="Perm"
                mdr:SubmissionDataType="Num" mdr:VariableSet="Timing">
                <Description>
                    <TranslatedText xml:lang="en">Analysis Relative Day</TranslatedText>
                </Description>
                <mdr:CDISCNotes>
                    <TranslatedText xml:lang="en">The relative day of AVAL and/or AVALC. The number
                        of days from an anchor date (not necessarily DM.RFSTDTC) to ADT. See Section
                        3.1.2, Timing Variable Conventions.</TranslatedText>
                </mdr:CDISCNotes>
            </ItemDef>
            <ItemDef DataType="text" Name="ADTF" OID="IT.Timing.BDS.ADTF" mdr:Core="Cond"
                mdr:SubmissionDataType="Char" mdr:VariableSet="Timing">
                <Description>
                    <TranslatedText xml:lang="en">Analysis Date Imputation Flag</TranslatedText>
                </Description>
                <CodeListRef CodeListOID="CL.C81223"/>
                <mdr:CDISCNotes>
                    <TranslatedText xml:lang="en">The level of imputation of analysis date. If ADT
                        (or the date part of ADTM) was imputed, ADTF must be populated and is
                        required. See Section 3.1.3, Date and Time Imputation Flag
                        Variables.</TranslatedText>
                </mdr:CDISCNotes>
            </ItemDef>
            <ItemDef DataType="text" Name="ATMF" OID="IT.Timing.BDS.ATMF" mdr:Core="Cond"
                mdr:SubmissionDataType="Char" mdr:VariableSet="Timing">
                <Description>
                    <TranslatedText xml:lang="en">Analysis Time Imputation Flag</TranslatedText>
                </Description>
                <CodeListRef CodeListOID="CL.C81226"/>
                <mdr:CDISCNotes>
                    <TranslatedText xml:lang="en">The level of imputation of analysis time. If ATM
                        (or the time part of ADTM) was imputed, ATMF must be populated and is
                        required. See Section 3.1.3, Date and Time Imputation Flag
                        Variables.</TranslatedText>
                </mdr:CDISCNotes>
            </ItemDef>
            <ItemDef DataType="double" Name="ASTDT" OID="IT.Timing.BDS.ASTDT" mdr:Core="Perm"
                mdr:SubmissionDataType="Num" mdr:VariableSet="Timing">
                <Description>
                    <TranslatedText xml:lang="en">Analysis Start Date</TranslatedText>
                </Description>
                <mdr:CDISCNotes>
                    <TranslatedText xml:lang="en">The start date associated with AVAL and/or AVALC.
                        ASTDT and AENDT may be useful for traceability when AVAL summarizes data
                        collected over an interval of time, or when AVAL is a
                        duration.</TranslatedText>
                </mdr:CDISCNotes>
            </ItemDef>
            <ItemDef DataType="double" Name="ASTTM" OID="IT.Timing.BDS.ASTTM" mdr:Core="Perm"
                mdr:SubmissionDataType="Num" mdr:VariableSet="Timing">
                <Description>
                    <TranslatedText xml:lang="en">Analysis Start Time</TranslatedText>
                </Description>
                <mdr:CDISCNotes>
                    <TranslatedText xml:lang="en">The start time associated with AVAL and/or AVALC.
                        ASTTM and AENTM may be useful for traceability when AVAL summarizes data
                        collected over an interval of time, or when AVAL is a
                        duration.</TranslatedText>
                </mdr:CDISCNotes>
            </ItemDef>
            <ItemDef DataType="double" Name="ASTDTM" OID="IT.Timing.BDS.ASTDTM" mdr:Core="Perm"
                mdr:SubmissionDataType="Num" mdr:VariableSet="Timing">
                <Description>
                    <TranslatedText xml:lang="en">Analysis Start Datetime</TranslatedText>
                </Description>
                <mdr:CDISCNotes>
                    <TranslatedText xml:lang="en">The start datetime associated with AVAL and/or
                        AVALC. ASTDTM and AENDTM may be useful for traceability when AVAL summarizes
                        data collected over an interval of time, or when AVAL is a
                        duration.</TranslatedText>
                </mdr:CDISCNotes>
            </ItemDef>
            <ItemDef DataType="double" Name="ASTDY" OID="IT.Timing.BDS.ASTDY" mdr:Core="Perm"
                mdr:SubmissionDataType="Num" mdr:VariableSet="Timing">
                <Description>
                    <TranslatedText xml:lang="en">Analysis Start Relative Day</TranslatedText>
                </Description>
                <mdr:CDISCNotes>
                    <TranslatedText xml:lang="en">The number of days from an anchor date (not
                        necessarily DM.RFSTDTC) to ASTDT. See Section 3.1.2, Timing Variable
                        Conventions.</TranslatedText>
                </mdr:CDISCNotes>
            </ItemDef>
            <ItemDef DataType="text" Name="ASTDTF" OID="IT.Timing.BDS.ASTDTF" mdr:Core="Cond"
                mdr:SubmissionDataType="Char" mdr:VariableSet="Timing">
                <Description>
                    <TranslatedText xml:lang="en">Analysis Start Date Imputation
                        Flag</TranslatedText>
                </Description>
                <CodeListRef CodeListOID="CL.C81223"/>
                <mdr:CDISCNotes>
                    <TranslatedText xml:lang="en">The level of imputation of analysis start date. If
                        ASTDT (or the date part of ASTDTM) was imputed, ASTDTF must be populated and
                        is required. See Section 3.1.3, Date and Time Imputation Flag
                        Variables.</TranslatedText>
                </mdr:CDISCNotes>
            </ItemDef>
            <ItemDef DataType="text" Name="ASTTMF" OID="IT.Timing.BDS.ASTTMF" mdr:Core="Cond"
                mdr:SubmissionDataType="Char" mdr:VariableSet="Timing">
                <Description>
                    <TranslatedText xml:lang="en">Analysis Start Time Imputation
                        Flag</TranslatedText>
                </Description>
                <CodeListRef CodeListOID="CL.C81226"/>
                <mdr:CDISCNotes>
                    <TranslatedText xml:lang="en">The level of imputation of analysis start time. If
                        ASTTM (or the time part of ASTDTM) was imputed, ASTTMF must be populated and
                        is required. See Section 3.1.3, Date and Time Imputation Flag
                        Variables.</TranslatedText>
                </mdr:CDISCNotes>
            </ItemDef>
            <ItemDef DataType="double" Name="AENDT" OID="IT.Timing.BDS.AENDT" mdr:Core="Perm"
                mdr:SubmissionDataType="Num" mdr:VariableSet="Timing">
                <Description>
                    <TranslatedText xml:lang="en">Analysis End Date</TranslatedText>
                </Description>
                <mdr:CDISCNotes>
                    <TranslatedText xml:lang="en">The end date associated with AVAL and/or AVALC.
                        See also ASTDT.</TranslatedText>
                </mdr:CDISCNotes>
            </ItemDef>
            <ItemDef DataType="double" Name="AENTM" OID="IT.Timing.BDS.AENTM" mdr:Core="Perm"
                mdr:SubmissionDataType="Num" mdr:VariableSet="Timing">
                <Description>
                    <TranslatedText xml:lang="en">Analysis End Time</TranslatedText>
                </Description>
                <mdr:CDISCNotes>
                    <TranslatedText xml:lang="en">The end time associated with AVAL and/or AVALC.
                        See also ASTTM.</TranslatedText>
                </mdr:CDISCNotes>
            </ItemDef>
            <ItemDef DataType="double" Name="AENDTM" OID="IT.Timing.BDS.AENDTM" mdr:Core="Perm"
                mdr:SubmissionDataType="Num" mdr:VariableSet="Timing">
                <Description>
                    <TranslatedText xml:lang="en">Analysis End Datetime</TranslatedText>
                </Description>
                <mdr:CDISCNotes>
                    <TranslatedText xml:lang="en">The end datetime associated with AVAL and/or
                        AVALC. See also ASTDTM.</TranslatedText>
                </mdr:CDISCNotes>
            </ItemDef>
            <ItemDef DataType="double" Name="AENDY" OID="IT.Timing.BDS.AENDY" mdr:Core="Perm"
                mdr:SubmissionDataType="Num" mdr:VariableSet="Timing">
                <Description>
                    <TranslatedText xml:lang="en">Analysis End Relative Day</TranslatedText>
                </Description>
                <mdr:CDISCNotes>
                    <TranslatedText xml:lang="en">The number of days from an anchor date (not
                        necessarily DM.RFSTDTC) to AENDT. See Section 3.1.2, Timing Variable
                        Conventions.</TranslatedText>
                </mdr:CDISCNotes>
            </ItemDef>
            <ItemDef DataType="text" Name="AENDTF" OID="IT.Timing.BDS.AENDTF" mdr:Core="Cond"
                mdr:SubmissionDataType="Char" mdr:VariableSet="Timing">
                <Description>
                    <TranslatedText xml:lang="en">Analysis End Date Imputation Flag</TranslatedText>
                </Description>
                <CodeListRef CodeListOID="CL.C81223"/>
                <mdr:CDISCNotes>
                    <TranslatedText xml:lang="en">The level of imputation of analysis end date. If
                        AENDT (or the date part of AENDTM) was imputed, AENDTF must be populated and
                        is required. See Section 3.1.3, Date and Time Imputation Flag
                        Variables.</TranslatedText>
                </mdr:CDISCNotes>
            </ItemDef>
            <ItemDef DataType="text" Name="AENTMF" OID="IT.Timing.BDS.AENTMF" mdr:Core="Cond"
                mdr:SubmissionDataType="Char" mdr:VariableSet="Timing">
                <Description>
                    <TranslatedText xml:lang="en">Analysis End Time Imputation Flag</TranslatedText>
                </Description>
                <CodeListRef CodeListOID="CL.C81226"/>
                <mdr:CDISCNotes>
                    <TranslatedText xml:lang="en">The level of imputation of analysis end time. If
                        AENTM (or the time part of AENDTM) was imputed, AENTMF must be populated and
                        is required. See Section 3.1.3, Date and Time Imputation Flag
                        Variables.</TranslatedText>
                </mdr:CDISCNotes>
            </ItemDef>
            <ItemDef DataType="text" Name="AVISIT" OID="IT.Timing.BDS.AVISIT" mdr:Core="Cond"
                mdr:SubmissionDataType="Char" mdr:VariableSet="Timing">
                <Description>
                    <TranslatedText xml:lang="en">Analysis Visit</TranslatedText>
                </Description>
                <mdr:CDISCNotes>
                    <TranslatedText xml:lang="en">The analysis visit description; required if an
                        analysis is done by nominal, assigned or analysis visit. AVISIT may contain
                        the visit names as observed (i.e., from SDTM VISIT), derived visit names,
                        time window names, conceptual descriptions (such as Average, Endpoint,
                        etc.), or a combination of any of these. AVISIT is a derived field and does
                        not have to map to VISIT from the SDTM. AVISIT represents the analysis visit
                        of the record, but it does not mean that the record was analyzed. There are
                        often multiple records for the same subject and parameter that have the same
                        value of AVISIT. ANLzzFL and other variables may be needed to identify the
                        records selected for any given analysis. See Section 3.3.8, Indicator
                        Variables for BDS Datasets, for information about flag variables. AVISIT
                        should be unique for a given analysis visit window. In the event that a
                        record does not fall within any predefined analysis timepoint window, AVISIT
                        can be populated in any way that the producer chooses to indicate this fact
                        (e.g., blank or 'Not Windowed'). The way that AVISIT is calculated,
                        including the variables used in its derivation, should be indicated in the
                        variable metadata for AVISIT. The values and the rules for deriving AVISIT
                        may be different for different parameters within the same dataset. Values of
                        AVISIT are producer-defined, and are often directly usable in Clinical Study
                        Report displays.</TranslatedText>
                </mdr:CDISCNotes>
            </ItemDef>
            <ItemDef DataType="double" Name="AVISITN" OID="IT.Timing.BDS.AVISITN" mdr:Core="Perm"
                mdr:SubmissionDataType="Num" mdr:VariableSet="Timing">
                <Description>
                    <TranslatedText xml:lang="en">Analysis Visit (N)</TranslatedText>
                </Description>
                <mdr:CDISCNotes>
                    <TranslatedText xml:lang="en">Numeric representation of AVISIT. Since study
                        visits are usually defined by certain timepoints, defining AVISITN so that
                        it represents the timepoint associated with the visit can facilitate
                        plotting and interpretation of the values. Alternatively, AVISITN may be a
                        protocol visit number, a cycle number, an analysis visit number, or any
                        other number logically related to AVISIT or useful for sorting that is
                        needed for analysis. There must be a one-to-one relationship between AVISITN
                        and AVISIT (i.e., AVISITN has the same value for each distinct AVISIT)
                        within a parameter. A best practice is to extend the one-to-one relationship
                        to within a study, but this is not an ADaM requirement. In the event that a
                        record does not fall within any predefined analysis timepoint window,
                        AVISITN can be populated in any way that the producer chooses to indicate
                        this fact (e.g., may be null). Values of AVISITN are producer-defined.
                        AVISITN cannot be present unless AVISIT is also present. On a given record,
                        AVISITN cannot be populated if AVISIT is null. AVISITN can be null when
                        AVISIT is populated, as long as the one-to-one relationship is maintained
                        within a parameter on all rows on which both variables are
                        populated.</TranslatedText>
                </mdr:CDISCNotes>
            </ItemDef>
            <ItemDef DataType="text" Name="ATPT" OID="IT.Timing.BDS.ATPT" mdr:Core="Cond"
                mdr:SubmissionDataType="Char" mdr:VariableSet="Timing">
                <Description>
                    <TranslatedText xml:lang="en">Analysis Timepoint</TranslatedText>
                </Description>
                <mdr:CDISCNotes>
                    <TranslatedText xml:lang="en">The analysis timepoint description; required if an
                        analysis is done by nominal, assigned or analysis timepoint (instead of or
                        in addition to by-visit). Timepoints are relative to ATPTREF. ATPT may
                        contain the timepoint names as observed (i.e., from SDTM --TPT), derived
                        timepoint names, time window names, conceptual descriptions (such as
                        Average, Endpoint, etc.), or a combination of any of these. This variable is
                        often used in conjunction with AVISIT. ATPT represents the analysis
                        timepoint of the record. ATPT can be within an analysis visit (e.g., blood
                        pressure assessments at 10 min, 20 min, and 30 min post-dose at AVISIT=Week
                        1) or can be unrelated to AVISIT (e.g., migraine symptoms 30 min, 60 min,
                        and 120 min post-dose for attack 1). The way that ATPT is calculated,
                        including the variables used in its derivation, should be indicated in the
                        variable metadata for ATPT. The values and the rules for deriving ATPT may
                        be different for different parameters within the same dataset. Values of
                        ATPT are producer-defined, and are often directly usable in Clinical Study
                        Report displays.</TranslatedText>
                </mdr:CDISCNotes>
            </ItemDef>
            <ItemDef DataType="double" Name="ATPTN" OID="IT.Timing.BDS.ATPTN" mdr:Core="Perm"
                mdr:SubmissionDataType="Num" mdr:VariableSet="Timing">
                <Description>
                    <TranslatedText xml:lang="en">Analysis Timepoint (N)</TranslatedText>
                </Description>
                <mdr:CDISCNotes>
                    <TranslatedText xml:lang="en">Numeric representation of ATPT. Defining ATPTN so
                        that its values represent the planned timepoints (e.g., minutes or hours
                        after dosing) is not required but can facilitate plotting and interpretation
                        of the values. There must be a one-to-one relationship between ATPTN and
                        ATPT within a parameter. (Best practice would dictate that the mapping would
                        be one-to-one within a study, but that is not an ADaM requirement.) ATPTN
                        cannot be present unless ATPT is also present. When ATPT and ATPTN are
                        present, then on a given record, either both must be populated or both must
                        be null.</TranslatedText>
                </mdr:CDISCNotes>
            </ItemDef>
            <ItemDef DataType="text" Name="ATPTREF" OID="IT.Timing.BDS.ATPTREF" mdr:Core="Perm"
                mdr:SubmissionDataType="Char" mdr:VariableSet="Timing">
                <Description>
                    <TranslatedText xml:lang="en">Analysis Timepoint Reference</TranslatedText>
                </Description>
                <mdr:CDISCNotes>
                    <TranslatedText xml:lang="en">Description of the fixed reference point referred
                        to by ATPT/ATPTN (e.g., time of dose).</TranslatedText>
                </mdr:CDISCNotes>
            </ItemDef>
            <ItemDef DataType="text" Name="APHASE" OID="IT.Timing.BDS.APHASE" mdr:Core="Perm"
                mdr:SubmissionDataType="Char" mdr:VariableSet="Timing">
                <Description>
                    <TranslatedText xml:lang="en">Phase</TranslatedText>
                </Description>
                <mdr:CDISCNotes>
                    <TranslatedText xml:lang="en">APHASE is a categorization of timing within a
                        study, for example a higher-level categorization of APERIOD or an analysis
                        epoch. For example, APHASE could describe spans of time for SCREENING, ON
                        TREATMENT, and FOLLOW-UP. APHASE may be used alone or in addition to
                        APERIOD. APHASE is independent of TRTxxP within ADSL. APHASE may be
                        populated for spans of time where a subject is not on treatment. The value
                        of APHASE (if populated) must be one of the values found in the ADSL APHASEw
                        variables.</TranslatedText>
                </mdr:CDISCNotes>
            </ItemDef>
            <ItemDef DataType="double" Name="APHASEN" OID="IT.Timing.BDS.APHASEN" mdr:Core="Perm"
                mdr:SubmissionDataType="Num" mdr:VariableSet="Timing">
                <Description>
                    <TranslatedText xml:lang="en">Phase (N)</TranslatedText>
                </Description>
                <mdr:CDISCNotes>
                    <TranslatedText xml:lang="en">Numeric representation of APHASE. The value of
                        APHASEN (if populated) must be one of the w values found in the ADSL APHASEw
                        variable names. There must be a one-to-one relationship between APHASEN and
                        APHASE within a study, which must be the same as the one-to-one mapping
                        between w and APHASEw in ADSL. APHASEN cannot be present unless APHASE is
                        also present. When APHASE and APHASEN are present, then on a given record,
                        either both must be populated or both must be null.</TranslatedText>
                </mdr:CDISCNotes>
            </ItemDef>
            <ItemDef DataType="double" Name="APERIOD" OID="IT.Timing.BDS.APERIOD" mdr:Core="Cond"
                mdr:SubmissionDataType="Num" mdr:VariableSet="Timing">
                <Description>
                    <TranslatedText xml:lang="en">Period</TranslatedText>
                </Description>
                <mdr:CDISCNotes>
                    <TranslatedText xml:lang="en">APERIOD is a record-level timing variable that
                        represents the analysis period within the study associated with the record
                        for analysis purposes. The value of APERIOD (if populated) must be one of
                        the xx values found in the ADSL TRTxxP variable names. APERIOD is required
                        if ASPER is present. APERIOD must be populated on all records where ASPER is
                        populated. </TranslatedText>
                </mdr:CDISCNotes>
            </ItemDef>
            <ItemDef DataType="text" Name="APERIODC" OID="IT.Timing.BDS.APERIODC" mdr:Core="Perm"
                mdr:SubmissionDataType="Char" mdr:VariableSet="Timing">
                <Description>
                    <TranslatedText xml:lang="en">Period (C)</TranslatedText>
                </Description>
                <mdr:CDISCNotes>
                    <TranslatedText xml:lang="en">Text characterizing to which analysis period the
                        record belongs. There must be a one-to-one relationship between APERIODC and
                        APERIOD within a study. APERIODC cannot be present unless APERIOD is also
                        present. When APERIOD and APERIODC are present, then on a given record,
                        either both must be populated or both must be null.</TranslatedText>
                </mdr:CDISCNotes>
            </ItemDef>
            <ItemDef DataType="double" Name="ASPER" OID="IT.Timing.BDS.ASPER" mdr:Core="Perm"
                mdr:SubmissionDataType="Num" mdr:VariableSet="Timing">
                <Description>
                    <TranslatedText xml:lang="en">Subperiod within Period</TranslatedText>
                </Description>
                <mdr:CDISCNotes>
                    <TranslatedText xml:lang="en">The numeric value characterizing a sublevel within
                        APERIOD to which the record belongs. Within each APERIOD, the first ASPER is
                        1 (i.e., it resets to 1 when the APERIOD value changes). The value of ASPER
                        (if populated) must be one of the w values found in the ADSL PxxSw variable
                        names. </TranslatedText>
                </mdr:CDISCNotes>
            </ItemDef>
            <ItemDef DataType="text" Name="ASPERC" OID="IT.Timing.BDS.ASPERC" mdr:Core="Perm"
                mdr:SubmissionDataType="Char" mdr:VariableSet="Timing">
                <Description>
                    <TranslatedText xml:lang="en">Subperiod within Period (C)</TranslatedText>
                </Description>
                <mdr:CDISCNotes>
                    <TranslatedText xml:lang="en">Text characterizing to which subperiod the record
                        belongs. There must be a one-to-one relationship between ASPERC and ASPER
                        within a value of APERIOD, which must be the same as the one-to-one mapping
                        between PxxSw and w in ADSL, where xx is equal to the value of APERIOD. The
                        value of ASPERC (if populated) must be one of the values found in the ADSL
                        PxxSw variables. ASPERC cannot be present unless ASPER is also present. When
                        ASPER and ASPERC are present, then on a given record, either both must be
                        populated or both must be null.</TranslatedText>
                </mdr:CDISCNotes>
            </ItemDef>
            <ItemDef DataType="double" Name="ARELTM" OID="IT.Timing.BDS.ARELTM" mdr:Core="Perm"
                mdr:SubmissionDataType="Num" mdr:VariableSet="Timing">
                <Description>
                    <TranslatedText xml:lang="en">Analysis Relative Time</TranslatedText>
                </Description>
                <mdr:CDISCNotes>
                    <TranslatedText xml:lang="en">The time relative to an anchor time. The amount of
                        time from an anchor time to ATM. When ARELTM is present, the anchor time
                        variable and ARELTMU must also be included in the dataset, and the anchor
                        time variable must be identified in the metadata for
                        ARELTM.</TranslatedText>
                </mdr:CDISCNotes>
            </ItemDef>
            <ItemDef DataType="text" Name="ARELTMU" OID="IT.Timing.BDS.ARELTMU" mdr:Core="Perm"
                mdr:SubmissionDataType="Char" mdr:VariableSet="Timing">
                <Description>
                    <TranslatedText xml:lang="en">Analysis Relative Time Unit</TranslatedText>
                </Description>
                <mdr:CDISCNotes>
                    <TranslatedText xml:lang="en">The units of ARELTM. For example, 'HOURS' or
                        'MINUTES.' ARELTMU is required if ARELTM is present.</TranslatedText>
                </mdr:CDISCNotes>
            </ItemDef>
            <ItemDef DataType="double" Name="APERSDT"
                OID="IT.PeriodSubperiodPhaseStartEndTiming.BDS.APERSDT" mdr:Core="Perm"
                mdr:SubmissionDataType="Num"
                mdr:VariableSet="Period Subperiod and Phase Start and End Timing">
                <Description>
                    <TranslatedText xml:lang="en">Period Start Date</TranslatedText>
                </Description>
                <mdr:CDISCNotes>
                    <TranslatedText xml:lang="en">The starting date for the period defined by
                        APERIOD.</TranslatedText>
                </mdr:CDISCNotes>
            </ItemDef>
            <ItemDef DataType="double" Name="APERSTM"
                OID="IT.PeriodSubperiodPhaseStartEndTiming.BDS.APERSTM" mdr:Core="Perm"
                mdr:SubmissionDataType="Num"
                mdr:VariableSet="Period Subperiod and Phase Start and End Timing">
                <Description>
                    <TranslatedText xml:lang="en">Period Start Time</TranslatedText>
                </Description>
                <mdr:CDISCNotes>
                    <TranslatedText xml:lang="en">The starting time for the period defined by
                        APERIOD.</TranslatedText>
                </mdr:CDISCNotes>
            </ItemDef>
            <ItemDef DataType="double" Name="APERSDTM"
                OID="IT.PeriodSubperiodPhaseStartEndTiming.BDS.APERSDTM" mdr:Core="Perm"
                mdr:SubmissionDataType="Num"
                mdr:VariableSet="Period Subperiod and Phase Start and End Timing">
                <Description>
                    <TranslatedText xml:lang="en">Period Start Datetime</TranslatedText>
                </Description>
                <mdr:CDISCNotes>
                    <TranslatedText xml:lang="en">The starting datetime for the period defined by
                        APERIOD.</TranslatedText>
                </mdr:CDISCNotes>
            </ItemDef>
            <ItemDef DataType="text" Name="APERSDTF"
                OID="IT.PeriodSubperiodPhaseStartEndTiming.BDS.APERSDTF" mdr:Core="Cond"
                mdr:SubmissionDataType="Char"
                mdr:VariableSet="Period Subperiod and Phase Start and End Timing">
                <Description>
                    <TranslatedText xml:lang="en">Period Start Date Imput. Flag</TranslatedText>
                </Description>
                <CodeListRef CodeListOID="CL.C81223"/>
                <mdr:CDISCNotes>
                    <TranslatedText xml:lang="en">The level of imputation of period start date. If
                        APERSDT (or the date part of APERSDTM) was imputed, APERSDTF must be
                        populated and is required. See Section 3.1.3, Date and Time Imputation Flag
                        Variables.</TranslatedText>
                </mdr:CDISCNotes>
            </ItemDef>
            <ItemDef DataType="text" Name="APERSTMF"
                OID="IT.PeriodSubperiodPhaseStartEndTiming.BDS.APERSTMF" mdr:Core="Cond"
                mdr:SubmissionDataType="Char"
                mdr:VariableSet="Period Subperiod and Phase Start and End Timing">
                <Description>
                    <TranslatedText xml:lang="en">Period Start Time Imput. Flag</TranslatedText>
                </Description>
                <CodeListRef CodeListOID="CL.C81226"/>
                <mdr:CDISCNotes>
                    <TranslatedText xml:lang="en">The level of imputation of period start time. If
                        APERSTM (or the time part of APERSDTM) was imputed, APERSTMF must be
                        populated and is required. See Section 3.1.3, Date and Time Imputation Flag
                        Variables.</TranslatedText>
                </mdr:CDISCNotes>
            </ItemDef>
            <ItemDef DataType="double" Name="APEREDT"
                OID="IT.PeriodSubperiodPhaseStartEndTiming.BDS.APEREDT" mdr:Core="Perm"
                mdr:SubmissionDataType="Num"
                mdr:VariableSet="Period Subperiod and Phase Start and End Timing">
                <Description>
                    <TranslatedText xml:lang="en">Period End Date</TranslatedText>
                </Description>
                <mdr:CDISCNotes>
                    <TranslatedText xml:lang="en">The ending date for the period defined by
                        APERIOD.</TranslatedText>
