<?xml version='1.0' encoding='utf8'?>
<ODM AsOfDateTime="2017-09-20T00:00:00+00:00" CreationDateTime="2021-06-17T15:29:56.988829+00:00"
    FileOID="ODM.CDASHIGv2.0.2017-09-20" FileType="Snapshot" Granularity="Metadata"
    ODMVersion="1.3.2" Originator="CDISC LIBRARY" SourceSystem="cdisc_library_api"
    SourceSystemVersion="1.0" mdr:LibraryXMLVersion="1.0.0" xmlns="http://www.cdisc.org/ns/odm/v1.3"
    xmlns:mdr="http://www.cdisc.org/ns/library-xml/v1.0" xmlns:xlink="http://www.w3.org/1999/xlink">
    <Study OID="STUDY.CDASHIG.v2.0">
        <GlobalVariables>
            <StudyName>CDASHIG v2.0</StudyName>
            <StudyDescription>Clinical Data Acquisition Standards Harmonization Implementation Guide
                for Human Clinical Trials Version 2.0</StudyDescription>
            <ProtocolName>CDISC Standard Publication</ProtocolName>
        </GlobalVariables>
        <MetaDataVersion Name="CDASHIG v2.0 Metadata" OID="MDV.CDASHIG.v2.0"
            mdr:DatePublished="2017-09-20" mdr:Status="Final">
            <ItemGroupDef Domain="CM" Name="CM" OID="IGD.CM" Purpose="Data Collection"
                Repeating="No">
                <Description>
                    <TranslatedText xml:lang="en">Concomitant Medications</TranslatedText>
                </Description>
                <ItemRef ItemOID="IT.CM.STUDYID" Mandatory="No" OrderNumber="1"/>
                <ItemRef ItemOID="IT.CM.SITEID" Mandatory="No" OrderNumber="2"/>
                <ItemRef ItemOID="IT.CM.SUBJID" Mandatory="No" OrderNumber="3"/>
                <ItemRef ItemOID="IT.CM.CMCAT" Mandatory="No" OrderNumber="4"/>
                <ItemRef ItemOID="IT.CM.CMSCAT" Mandatory="No" OrderNumber="5"/>
                <ItemRef ItemOID="IT.CM.CMYN" Mandatory="No" OrderNumber="6"/>
                <ItemRef ItemOID="IT.CM.CMSPID" Mandatory="No" OrderNumber="7"/>
                <ItemRef ItemOID="IT.CM.CMTRT" Mandatory="No" OrderNumber="8"/>
                <ItemRef ItemOID="IT.CM.CMOCCUR" Mandatory="No" OrderNumber="9"/>
                <ItemRef ItemOID="IT.CM.CMINGRD" Mandatory="No" OrderNumber="10"/>
                <ItemRef ItemOID="IT.CM.CMINDC" Mandatory="No" OrderNumber="11"/>
                <ItemRef ItemOID="IT.CM.CMAENO" Mandatory="No" OrderNumber="12"/>
                <ItemRef ItemOID="IT.CM.CMMHNO" Mandatory="No" OrderNumber="13"/>
                <ItemRef ItemOID="IT.CM.CMDOSE" Mandatory="No" OrderNumber="14"/>
                <ItemRef ItemOID="IT.CM.CMDSTXT" Mandatory="No" OrderNumber="15"/>
                <ItemRef ItemOID="IT.CM.CMDOSTOT" Mandatory="No" OrderNumber="16"/>
                <ItemRef ItemOID="IT.CM.CMDOSU" Mandatory="No" OrderNumber="17"/>
                <ItemRef ItemOID="IT.CM.CMDOSFRM" Mandatory="No" OrderNumber="18"/>
                <ItemRef ItemOID="IT.CM.CMDOSFRQ" Mandatory="No" OrderNumber="19"/>
                <ItemRef ItemOID="IT.CM.CMROUTE" Mandatory="No" OrderNumber="20"/>
                <ItemRef ItemOID="IT.CM.CMSTDAT" Mandatory="No" OrderNumber="21"/>
                <ItemRef ItemOID="IT.CM.CMSTTIM" Mandatory="No" OrderNumber="22"/>
                <ItemRef ItemOID="IT.CM.CMPRIOR" Mandatory="No" OrderNumber="23"/>
                <ItemRef ItemOID="IT.CM.CMONGO" Mandatory="No" OrderNumber="24"/>
                <ItemRef ItemOID="IT.CM.CMENDAT" Mandatory="No" OrderNumber="25"/>
                <ItemRef ItemOID="IT.CM.CMENTIM" Mandatory="No" OrderNumber="26"/>
                <ItemRef ItemOID="IT.CM.CMDECOD" Mandatory="No" OrderNumber="27"/>
                <ItemRef ItemOID="IT.CM.CMCLAS" Mandatory="No" OrderNumber="28"/>
                <ItemRef ItemOID="IT.CM.CMCLASCD" Mandatory="No" OrderNumber="29"/>
                <ItemRef ItemOID="IT.CM.CMATC1" Mandatory="No" OrderNumber="30"/>
                <ItemRef ItemOID="IT.CM.CMATC1CD" Mandatory="No" OrderNumber="31"/>
                <ItemRef ItemOID="IT.CM.CMATC2" Mandatory="No" OrderNumber="32"/>
                <ItemRef ItemOID="IT.CM.CMATC2CD" Mandatory="No" OrderNumber="33"/>
                <ItemRef ItemOID="IT.CM.CMATC3" Mandatory="No" OrderNumber="34"/>
                <ItemRef ItemOID="IT.CM.CMATC3CD" Mandatory="No" OrderNumber="35"/>
                <ItemRef ItemOID="IT.CM.CMATC4" Mandatory="No" OrderNumber="36"/>
                <ItemRef ItemOID="IT.CM.CMATC4CD" Mandatory="No" OrderNumber="37"/>
                <ItemRef ItemOID="IT.CM.CMATC5" Mandatory="No" OrderNumber="38"/>
                <ItemRef ItemOID="IT.CM.CMATC5CD" Mandatory="No" OrderNumber="39"/>
                <mdr:Class Name="INTERVENTIONS"/>
            </ItemGroupDef>
            <ItemGroupDef Domain="EC" Name="EC" OID="IGD.EC" Purpose="Data Collection"
                Repeating="No">
                <Description>
                    <TranslatedText xml:lang="en">Exposure as Collected</TranslatedText>
                </Description>
                <ItemRef ItemOID="IT.EC.STUDYID" Mandatory="No" OrderNumber="1"/>
                <ItemRef ItemOID="IT.EC.SITEID" Mandatory="No" OrderNumber="2"/>
                <ItemRef ItemOID="IT.EC.SUBJID" Mandatory="No" OrderNumber="3"/>
                <ItemRef ItemOID="IT.EC.EPOCH" Mandatory="No" OrderNumber="4"/>
                <ItemRef ItemOID="IT.EC.ECYN" Mandatory="No" OrderNumber="5"/>
                <ItemRef ItemOID="IT.EC.ECCAT" Mandatory="No" OrderNumber="6"/>
                <ItemRef ItemOID="IT.EC.ECSCAT" Mandatory="No" OrderNumber="7"/>
                <ItemRef ItemOID="IT.EC.ECTRT" Mandatory="No" OrderNumber="8"/>
                <ItemRef ItemOID="IT.EC.ECOCCUR" Mandatory="No" OrderNumber="9"/>
                <ItemRef ItemOID="IT.EC.ECREASOC" Mandatory="No" OrderNumber="10"/>
                <ItemRef ItemOID="IT.EC.ECMOOD" Mandatory="No" OrderNumber="11"/>
                <ItemRef ItemOID="IT.EC.ECREFID" Mandatory="No" OrderNumber="12"/>
                <ItemRef ItemOID="IT.EC.ECLOT" Mandatory="No" OrderNumber="13"/>
                <ItemRef ItemOID="IT.EC.ECFAST" Mandatory="No" OrderNumber="14"/>
                <ItemRef ItemOID="IT.EC.ECDOSFRM" Mandatory="No" OrderNumber="15"/>
                <ItemRef ItemOID="IT.EC.ECSTDAT" Mandatory="No" OrderNumber="16"/>
                <ItemRef ItemOID="IT.EC.ECSTTIM" Mandatory="No" OrderNumber="17"/>
                <ItemRef ItemOID="IT.EC.ECENDAT" Mandatory="No" OrderNumber="18"/>
                <ItemRef ItemOID="IT.EC.ECENTIM" Mandatory="No" OrderNumber="19"/>
                <ItemRef ItemOID="IT.EC.ECDSTXT" Mandatory="No" OrderNumber="20"/>
                <ItemRef ItemOID="IT.EC.ECDOSU" Mandatory="No" OrderNumber="21"/>
                <ItemRef ItemOID="IT.EC.ECDOSFRQ" Mandatory="No" OrderNumber="22"/>
                <ItemRef ItemOID="IT.EC.ECROUTE" Mandatory="No" OrderNumber="23"/>
                <ItemRef ItemOID="IT.EC.ECDOSRGM" Mandatory="No" OrderNumber="24"/>
                <ItemRef ItemOID="IT.EC.ECDOSADJ" Mandatory="No" OrderNumber="25"/>
                <ItemRef ItemOID="IT.EC.ECADJ" Mandatory="No" OrderNumber="26"/>
                <ItemRef ItemOID="IT.EC.ECITRPD" Mandatory="No" OrderNumber="27"/>
                <ItemRef ItemOID="IT.EC.ECITRPDU" Mandatory="No" OrderNumber="28"/>
                <ItemRef ItemOID="IT.EC.ECLOC" Mandatory="No" OrderNumber="29"/>
                <ItemRef ItemOID="IT.EC.ECVAMT" Mandatory="No" OrderNumber="30"/>
                <ItemRef ItemOID="IT.EC.ECVAMTU" Mandatory="No" OrderNumber="31"/>
                <ItemRef ItemOID="IT.EC.ECFLRT" Mandatory="No" OrderNumber="32"/>
                <ItemRef ItemOID="IT.EC.ECFLRTU" Mandatory="No" OrderNumber="33"/>
                <ItemRef ItemOID="IT.EC.ECTPT" Mandatory="No" OrderNumber="34"/>
                <ItemRef ItemOID="IT.EC.ECTRTCMP" Mandatory="No" OrderNumber="35"/>
                <ItemRef ItemOID="IT.EC.ECLAT" Mandatory="No" OrderNumber="36"/>
                <ItemRef ItemOID="IT.EC.ECDIR" Mandatory="No" OrderNumber="37"/>
                <mdr:Class Name="INTERVENTIONS"/>
            </ItemGroupDef>
            <ItemGroupDef Domain="EX" Name="EX" OID="IGD.EX" Purpose="Data Collection"
                Repeating="No">
                <Description>
                    <TranslatedText xml:lang="en">Exposure</TranslatedText>
                </Description>
                <ItemRef ItemOID="IT.EX.STUDYID" Mandatory="No" OrderNumber="1"/>
                <ItemRef ItemOID="IT.EX.SITEID" Mandatory="No" OrderNumber="2"/>
                <ItemRef ItemOID="IT.EX.SUBJID" Mandatory="No" OrderNumber="3"/>
                <ItemRef ItemOID="IT.EX.EPOCH" Mandatory="No" OrderNumber="4"/>
                <ItemRef ItemOID="IT.EX.EXYN" Mandatory="No" OrderNumber="5"/>
                <ItemRef ItemOID="IT.EX.EXCAT" Mandatory="No" OrderNumber="6"/>
                <ItemRef ItemOID="IT.EX.EXSCAT" Mandatory="No" OrderNumber="7"/>
                <ItemRef ItemOID="IT.EX.EXTRT" Mandatory="No" OrderNumber="8"/>
                <ItemRef ItemOID="IT.EX.EXREFID" Mandatory="No" OrderNumber="9"/>
                <ItemRef ItemOID="IT.EX.EXLOT" Mandatory="No" OrderNumber="10"/>
                <ItemRef ItemOID="IT.EX.EXFAST" Mandatory="No" OrderNumber="11"/>
                <ItemRef ItemOID="IT.EX.EXDOSFRM" Mandatory="No" OrderNumber="12"/>
                <ItemRef ItemOID="IT.EX.EXSTDAT" Mandatory="No" OrderNumber="13"/>
                <ItemRef ItemOID="IT.EX.EXSTTIM" Mandatory="No" OrderNumber="14"/>
                <ItemRef ItemOID="IT.EX.EXENDAT" Mandatory="No" OrderNumber="15"/>
                <ItemRef ItemOID="IT.EX.EXENTIM" Mandatory="No" OrderNumber="16"/>
                <ItemRef ItemOID="IT.EX.EXDSTXT" Mandatory="No" OrderNumber="17"/>
                <ItemRef ItemOID="IT.EX.EXDOSU" Mandatory="No" OrderNumber="18"/>
                <ItemRef ItemOID="IT.EX.EXDOSFRQ" Mandatory="No" OrderNumber="19"/>
                <ItemRef ItemOID="IT.EX.EXROUTE" Mandatory="No" OrderNumber="20"/>
                <ItemRef ItemOID="IT.EX.EXDOSRGM" Mandatory="No" OrderNumber="21"/>
                <ItemRef ItemOID="IT.EX.EXDOSADJ" Mandatory="No" OrderNumber="22"/>
                <ItemRef ItemOID="IT.EX.EXADJ" Mandatory="No" OrderNumber="23"/>
                <ItemRef ItemOID="IT.EX.EXITRPD" Mandatory="No" OrderNumber="24"/>
                <ItemRef ItemOID="IT.EX.EXITRPDU" Mandatory="No" OrderNumber="25"/>
                <ItemRef ItemOID="IT.EX.EXLOC" Mandatory="No" OrderNumber="26"/>
                <ItemRef ItemOID="IT.EX.EXVAMT" Mandatory="No" OrderNumber="27"/>
                <ItemRef ItemOID="IT.EX.EXVAMTU" Mandatory="No" OrderNumber="28"/>
                <ItemRef ItemOID="IT.EX.EXFLRT" Mandatory="No" OrderNumber="29"/>
                <ItemRef ItemOID="IT.EX.EXFLRTU" Mandatory="No" OrderNumber="30"/>
                <ItemRef ItemOID="IT.EX.EXTPT" Mandatory="No" OrderNumber="31"/>
                <ItemRef ItemOID="IT.EX.EXTRTCMP" Mandatory="No" OrderNumber="32"/>
                <ItemRef ItemOID="IT.EX.EXLAT" Mandatory="No" OrderNumber="33"/>
                <ItemRef ItemOID="IT.EX.EXDIR" Mandatory="No" OrderNumber="34"/>
                <mdr:Class Name="INTERVENTIONS"/>
            </ItemGroupDef>
            <ItemGroupDef Domain="PR" Name="PR" OID="IGD.PR" Purpose="Data Collection"
                Repeating="No">
                <Description>
                    <TranslatedText xml:lang="en">Procedures</TranslatedText>
                </Description>
                <ItemRef ItemOID="IT.PR.STUDYID" Mandatory="No" OrderNumber="1"/>
                <ItemRef ItemOID="IT.PR.SITEID" Mandatory="No" OrderNumber="2"/>
                <ItemRef ItemOID="IT.PR.SUBJID" Mandatory="No" OrderNumber="3"/>
                <ItemRef ItemOID="IT.PR.PRYN" Mandatory="No" OrderNumber="4"/>
                <ItemRef ItemOID="IT.PR.PRCAT" Mandatory="No" OrderNumber="5"/>
                <ItemRef ItemOID="IT.PR.PRSCAT" Mandatory="No" OrderNumber="6"/>
                <ItemRef ItemOID="IT.PR.PRSPID" Mandatory="No" OrderNumber="7"/>
                <ItemRef ItemOID="IT.PR.PRTRT" Mandatory="No" OrderNumber="8"/>
                <ItemRef ItemOID="IT.PR.PRDECOD" Mandatory="No" OrderNumber="9"/>
                <ItemRef ItemOID="IT.PR.PRMODIFY" Mandatory="No" OrderNumber="10"/>
                <ItemRef ItemOID="IT.PR.PRPRESP" Mandatory="No" OrderNumber="11"/>
                <ItemRef ItemOID="IT.PR.PROCCUR" Mandatory="No" OrderNumber="12"/>
                <ItemRef ItemOID="IT.PR.PRREASOC" Mandatory="No" OrderNumber="13"/>
                <ItemRef ItemOID="IT.PR.PRCSTAT" Mandatory="No" OrderNumber="14"/>
                <ItemRef ItemOID="IT.PR.PRREASND" Mandatory="No" OrderNumber="15"/>
                <ItemRef ItemOID="IT.PR.PRPRIOR" Mandatory="No" OrderNumber="16"/>
                <ItemRef ItemOID="IT.PR.PRSTDAT" Mandatory="No" OrderNumber="17"/>
                <ItemRef ItemOID="IT.PR.PRONGO" Mandatory="No" OrderNumber="18"/>
                <ItemRef ItemOID="IT.PR.PRENDAT" Mandatory="No" OrderNumber="19"/>
                <ItemRef ItemOID="IT.PR.PRINDC" Mandatory="No" OrderNumber="20"/>
                <ItemRef ItemOID="IT.PR.PRAENO" Mandatory="No" OrderNumber="21"/>
                <ItemRef ItemOID="IT.PR.PRMHNO" Mandatory="No" OrderNumber="22"/>
                <ItemRef ItemOID="IT.PR.PRDSTXT" Mandatory="No" OrderNumber="23"/>
                <ItemRef ItemOID="IT.PR.PRDOSU" Mandatory="No" OrderNumber="24"/>
                <ItemRef ItemOID="IT.PR.PRDOSFRQ" Mandatory="No" OrderNumber="25"/>
                <ItemRef ItemOID="IT.PR.PRROUTE" Mandatory="No" OrderNumber="26"/>
                <ItemRef ItemOID="IT.PR.PRLOC" Mandatory="No" OrderNumber="27"/>
                <ItemRef ItemOID="IT.PR.PRLAT" Mandatory="No" OrderNumber="28"/>
                <ItemRef ItemOID="IT.PR.PRDIR" Mandatory="No" OrderNumber="29"/>
                <ItemRef ItemOID="IT.PR.PRPORTOT" Mandatory="No" OrderNumber="30"/>
                <ItemRef ItemOID="IT.PR.PRFAST" Mandatory="No" OrderNumber="31"/>
                <ItemRef ItemOID="IT.PR.PRDOSRGM" Mandatory="No" OrderNumber="32"/>
                <ItemRef ItemOID="IT.PR.PRDOSADJ" Mandatory="No" OrderNumber="33"/>
                <ItemRef ItemOID="IT.PR.PRADJ" Mandatory="No" OrderNumber="34"/>
                <ItemRef ItemOID="IT.PR.PRTRTCMP" Mandatory="No" OrderNumber="35"/>
                <ItemRef ItemOID="IT.PR.PRITRPYN" Mandatory="No" OrderNumber="36"/>
                <ItemRef ItemOID="IT.PR.PRITRPRS" Mandatory="No" OrderNumber="37"/>
                <ItemRef ItemOID="IT.PR.PRITRPD" Mandatory="No" OrderNumber="38"/>
                <ItemRef ItemOID="IT.PR.PRITRPDU" Mandatory="No" OrderNumber="39"/>
                <ItemRef ItemOID="IT.PR.PRLLT" Mandatory="No" OrderNumber="40"/>
                <ItemRef ItemOID="IT.PR.PRLLTCD" Mandatory="No" OrderNumber="41"/>
                <ItemRef ItemOID="IT.PR.PRPTCD" Mandatory="No" OrderNumber="42"/>
                <ItemRef ItemOID="IT.PR.PRHLT" Mandatory="No" OrderNumber="43"/>
                <ItemRef ItemOID="IT.PR.PRHLTCD" Mandatory="No" OrderNumber="44"/>
                <ItemRef ItemOID="IT.PR.PRHLGT" Mandatory="No" OrderNumber="45"/>
                <ItemRef ItemOID="IT.PR.PRHLGTCD" Mandatory="No" OrderNumber="46"/>
                <ItemRef ItemOID="IT.PR.PRSOC" Mandatory="No" OrderNumber="47"/>
                <ItemRef ItemOID="IT.PR.PRSOCCD" Mandatory="No" OrderNumber="48"/>
                <mdr:Class Name="INTERVENTIONS"/>
            </ItemGroupDef>
            <ItemGroupDef Domain="SU" Name="SU" OID="IGD.SU" Purpose="Data Collection"
                Repeating="No">
                <Description>
                    <TranslatedText xml:lang="en">Substance Use</TranslatedText>
                </Description>
                <ItemRef ItemOID="IT.SU.STUDYID" Mandatory="No" OrderNumber="1"/>
                <ItemRef ItemOID="IT.SU.SITEID" Mandatory="No" OrderNumber="2"/>
                <ItemRef ItemOID="IT.SU.SUBJID" Mandatory="No" OrderNumber="3"/>
                <ItemRef ItemOID="IT.SU.SUTRT" Mandatory="No" OrderNumber="4"/>
                <ItemRef ItemOID="IT.SU.SUCAT" Mandatory="No" OrderNumber="5"/>
                <ItemRef ItemOID="IT.SU.SUSCAT" Mandatory="No" OrderNumber="6"/>
                <ItemRef ItemOID="IT.SU.SUYN" Mandatory="No" OrderNumber="7"/>
                <ItemRef ItemOID="IT.SU.SUNCF" Mandatory="No" OrderNumber="8"/>
                <ItemRef ItemOID="IT.SU.SUSPID" Mandatory="No" OrderNumber="9"/>
                <ItemRef ItemOID="IT.SU.SUCSTAT" Mandatory="No" OrderNumber="10"/>
                <ItemRef ItemOID="IT.SU.SUREASND" Mandatory="No" OrderNumber="11"/>
                <ItemRef ItemOID="IT.SU.SUDSTXT" Mandatory="No" OrderNumber="12"/>
                <ItemRef ItemOID="IT.SU.SUDOSFRQ" Mandatory="No" OrderNumber="13"/>
                <ItemRef ItemOID="IT.SU.SUSTDAT" Mandatory="No" OrderNumber="14"/>
                <ItemRef ItemOID="IT.SU.SUENDAT" Mandatory="No" OrderNumber="15"/>
                <ItemRef ItemOID="IT.SU.SUCDUR" Mandatory="No" OrderNumber="16"/>
                <ItemRef ItemOID="IT.SU.SUCDURU" Mandatory="No" OrderNumber="17"/>
                <ItemRef ItemOID="IT.SU.SUMODIFY" Mandatory="No" OrderNumber="18"/>
                <ItemRef ItemOID="IT.SU.SUDECOD" Mandatory="No" OrderNumber="19"/>
                <mdr:Class Name="INTERVENTIONS"/>
            </ItemGroupDef>
            <ItemGroupDef Domain="AE" Name="AE" OID="IGD.AE" Purpose="Data Collection"
                Repeating="No">
                <Description>
                    <TranslatedText xml:lang="en">Adverse Events</TranslatedText>
                </Description>
                <ItemRef ItemOID="IT.AE.STUDYID" Mandatory="No" OrderNumber="1"/>
                <ItemRef ItemOID="IT.AE.SITEID" Mandatory="No" OrderNumber="2"/>
                <ItemRef ItemOID="IT.AE.SUBJID" Mandatory="No" OrderNumber="3"/>
                <ItemRef ItemOID="IT.AE.AEYN" Mandatory="No" OrderNumber="4"/>
                <ItemRef ItemOID="IT.AE.AECAT" Mandatory="No" OrderNumber="5"/>
                <ItemRef ItemOID="IT.AE.AESCAT" Mandatory="No" OrderNumber="6"/>
                <ItemRef ItemOID="IT.AE.AESPID" Mandatory="No" OrderNumber="7"/>
                <ItemRef ItemOID="IT.AE.AETERM" Mandatory="No" OrderNumber="8"/>
                <ItemRef ItemOID="IT.AE.AEOCCUR" Mandatory="No" OrderNumber="9"/>
                <ItemRef ItemOID="IT.AE.AEPRESP" Mandatory="No" OrderNumber="10"/>
                <ItemRef ItemOID="IT.AE.AESTDAT" Mandatory="No" OrderNumber="11"/>
                <ItemRef ItemOID="IT.AE.AESTTIM" Mandatory="No" OrderNumber="12"/>
                <ItemRef ItemOID="IT.AE.AELOC" Mandatory="No" OrderNumber="13"/>
                <ItemRef ItemOID="IT.AE.AELAT" Mandatory="No" OrderNumber="14"/>
                <ItemRef ItemOID="IT.AE.AEDIR" Mandatory="No" OrderNumber="15"/>
                <ItemRef ItemOID="IT.AE.AEPORTOT" Mandatory="No" OrderNumber="16"/>
                <ItemRef ItemOID="IT.AE.AEONGO" Mandatory="No" OrderNumber="17"/>
                <ItemRef ItemOID="IT.AE.AEENDAT" Mandatory="No" OrderNumber="18"/>
                <ItemRef ItemOID="IT.AE.AEENTIM" Mandatory="No" OrderNumber="19"/>
                <ItemRef ItemOID="IT.AE.AESEV" Mandatory="No" OrderNumber="20"/>
                <ItemRef ItemOID="IT.AE.AETOXGR" Mandatory="No" OrderNumber="21"/>
                <ItemRef ItemOID="IT.AE.AESER" Mandatory="No" OrderNumber="22"/>
                <ItemRef ItemOID="IT.AE.AESDTH" Mandatory="No" OrderNumber="23"/>
                <ItemRef ItemOID="IT.AE.DTHDAT" Mandatory="No" OrderNumber="24"/>
                <ItemRef ItemOID="IT.AE.AESLIFE" Mandatory="No" OrderNumber="25"/>
                <ItemRef ItemOID="IT.AE.AESHOSP" Mandatory="No" OrderNumber="26"/>
                <ItemRef ItemOID="IT.AE.AESDISAB" Mandatory="No" OrderNumber="27"/>
                <ItemRef ItemOID="IT.AE.AESCONG" Mandatory="No" OrderNumber="28"/>
                <ItemRef ItemOID="IT.AE.AESINTV" Mandatory="No" OrderNumber="29"/>
                <ItemRef ItemOID="IT.AE.AESMIE" Mandatory="No" OrderNumber="30"/>
                <ItemRef ItemOID="IT.AE.AESCAN" Mandatory="No" OrderNumber="31"/>
                <ItemRef ItemOID="IT.AE.AESOD" Mandatory="No" OrderNumber="32"/>
                <ItemRef ItemOID="IT.AE.AEREL" Mandatory="No" OrderNumber="33"/>
                <ItemRef ItemOID="IT.AE.AEACN" Mandatory="No" OrderNumber="34"/>
                <ItemRef ItemOID="IT.AE.AEACNDEV" Mandatory="No" OrderNumber="35"/>
                <ItemRef ItemOID="IT.AE.AEACNOTH" Mandatory="No" OrderNumber="36"/>
                <ItemRef ItemOID="IT.AE.AEOUT" Mandatory="No" OrderNumber="37"/>
                <ItemRef ItemOID="IT.AE.AEDIS" Mandatory="No" OrderNumber="38"/>
                <ItemRef ItemOID="IT.AE.AERLNSYN" Mandatory="No" OrderNumber="39"/>
                <ItemRef ItemOID="IT.AE.AERELNST" Mandatory="No" OrderNumber="40"/>
                <ItemRef ItemOID="IT.AE.AESI" Mandatory="No" OrderNumber="41"/>
                <ItemRef ItemOID="IT.AE.AEPATT" Mandatory="No" OrderNumber="42"/>
                <ItemRef ItemOID="IT.AE.AECONTRT" Mandatory="No" OrderNumber="43"/>
                <ItemRef ItemOID="IT.AE.AEMODIFY" Mandatory="No" OrderNumber="44"/>
                <ItemRef ItemOID="IT.AE.AEDECOD" Mandatory="No" OrderNumber="45"/>
                <ItemRef ItemOID="IT.AE.AELLT" Mandatory="No" OrderNumber="46"/>
                <ItemRef ItemOID="IT.AE.AELLTCD" Mandatory="No" OrderNumber="47"/>
                <ItemRef ItemOID="IT.AE.AEPTCD" Mandatory="No" OrderNumber="48"/>
                <ItemRef ItemOID="IT.AE.AEHLT" Mandatory="No" OrderNumber="49"/>
                <ItemRef ItemOID="IT.AE.AEHLTCD" Mandatory="No" OrderNumber="50"/>
                <ItemRef ItemOID="IT.AE.AEHLGT" Mandatory="No" OrderNumber="51"/>
                <ItemRef ItemOID="IT.AE.AEHLGTCD" Mandatory="No" OrderNumber="52"/>
                <ItemRef ItemOID="IT.AE.AESOC" Mandatory="No" OrderNumber="53"/>
                <ItemRef ItemOID="IT.AE.AESOCCD" Mandatory="No" OrderNumber="54"/>
                <ItemRef ItemOID="IT.AE.AEACNOYN" Mandatory="No" OrderNumber="55"/>
                <mdr:Class Name="EVENTS"/>
            </ItemGroupDef>
            <ItemGroupDef Domain="CE" Name="CE" OID="IGD.CE" Purpose="Data Collection"
                Repeating="No">
                <Description>
                    <TranslatedText xml:lang="en">Clinical Events</TranslatedText>
                </Description>
                <ItemRef ItemOID="IT.CE.STUDYID" Mandatory="No" OrderNumber="1"/>
                <ItemRef ItemOID="IT.CE.SITEID" Mandatory="No" OrderNumber="2"/>
                <ItemRef ItemOID="IT.CE.SUBJID" Mandatory="No" OrderNumber="3"/>
                <ItemRef ItemOID="IT.CE.CECAT" Mandatory="No" OrderNumber="4"/>
                <ItemRef ItemOID="IT.CE.CESCAT" Mandatory="No" OrderNumber="5"/>
                <ItemRef ItemOID="IT.CE.CEYN" Mandatory="No" OrderNumber="6"/>
                <ItemRef ItemOID="IT.CE.CESPID" Mandatory="No" OrderNumber="7"/>
                <ItemRef ItemOID="IT.CE.CETERM" Mandatory="No" OrderNumber="8"/>
                <ItemRef ItemOID="IT.CE.CEOCCUR" Mandatory="No" OrderNumber="9"/>
                <ItemRef ItemOID="IT.CE.CEPRESP" Mandatory="No" OrderNumber="10"/>
                <ItemRef ItemOID="IT.CE.CESTDAT" Mandatory="No" OrderNumber="11"/>
                <ItemRef ItemOID="IT.CE.CESTTIM" Mandatory="No" OrderNumber="12"/>
                <ItemRef ItemOID="IT.CE.CELOC" Mandatory="No" OrderNumber="13"/>
                <ItemRef ItemOID="IT.CE.CELAT" Mandatory="No" OrderNumber="14"/>
                <ItemRef ItemOID="IT.CE.CEDIR" Mandatory="No" OrderNumber="15"/>
                <ItemRef ItemOID="IT.CE.CEPORTOT" Mandatory="No" OrderNumber="16"/>
                <ItemRef ItemOID="IT.CE.CEONGO" Mandatory="No" OrderNumber="17"/>
                <ItemRef ItemOID="IT.CE.CEENDAT" Mandatory="No" OrderNumber="18"/>
                <ItemRef ItemOID="IT.CE.CEENTIM" Mandatory="No" OrderNumber="19"/>
                <ItemRef ItemOID="IT.CE.CESEV" Mandatory="No" OrderNumber="20"/>
                <ItemRef ItemOID="IT.CE.CETOX" Mandatory="No" OrderNumber="21"/>
                <ItemRef ItemOID="IT.CE.CETOXGR" Mandatory="No" OrderNumber="22"/>
                <ItemRef ItemOID="IT.CE.CEMODIFY" Mandatory="No" OrderNumber="23"/>
                <ItemRef ItemOID="IT.CE.CEDECOD" Mandatory="No" OrderNumber="24"/>
                <ItemRef ItemOID="IT.CE.CELLT" Mandatory="No" OrderNumber="25"/>
                <ItemRef ItemOID="IT.CE.CELLTCD" Mandatory="No" OrderNumber="26"/>
                <ItemRef ItemOID="IT.CE.CEPTCD" Mandatory="No" OrderNumber="27"/>
                <ItemRef ItemOID="IT.CE.CEHLT" Mandatory="No" OrderNumber="28"/>
                <ItemRef ItemOID="IT.CE.CEHLTCD" Mandatory="No" OrderNumber="29"/>
                <ItemRef ItemOID="IT.CE.CEHLGT" Mandatory="No" OrderNumber="30"/>
                <ItemRef ItemOID="IT.CE.CEHLGTCD" Mandatory="No" OrderNumber="31"/>
                <ItemRef ItemOID="IT.CE.CESOC" Mandatory="No" OrderNumber="32"/>
                <ItemRef ItemOID="IT.CE.CESOCCD" Mandatory="No" OrderNumber="33"/>
                <mdr:Class Name="EVENTS"/>
            </ItemGroupDef>
            <ItemGroupDef Domain="DS" Name="DS" OID="IGD.DS" Purpose="Data Collection"
                Repeating="No">
                <Description>
                    <TranslatedText xml:lang="en">Disposition</TranslatedText>
                </Description>
                <ItemRef ItemOID="IT.DS.STUDYID" Mandatory="No" OrderNumber="1"/>
                <ItemRef ItemOID="IT.DS.SITEID" Mandatory="No" OrderNumber="2"/>
                <ItemRef ItemOID="IT.DS.SUBJID" Mandatory="No" OrderNumber="3"/>
                <ItemRef ItemOID="IT.DS.DSCAT" Mandatory="No" OrderNumber="4"/>
                <ItemRef ItemOID="IT.DS.DSSCAT" Mandatory="No" OrderNumber="5"/>
                <ItemRef ItemOID="IT.DS.EPOCH" Mandatory="No" OrderNumber="6"/>
                <ItemRef ItemOID="IT.DS.DSDECOD" Mandatory="No" OrderNumber="7"/>
                <ItemRef ItemOID="IT.DS.DSTERM" Mandatory="No" OrderNumber="8"/>
                <ItemRef ItemOID="IT.DS.DSSTDAT" Mandatory="No" OrderNumber="9"/>
                <ItemRef ItemOID="IT.DS.DSSTTIM" Mandatory="No" OrderNumber="10"/>
                <ItemRef ItemOID="IT.DS.DTHDAT" Mandatory="No" OrderNumber="11"/>
                <ItemRef ItemOID="IT.DS.DSUNBLND" Mandatory="No" OrderNumber="12"/>
                <ItemRef ItemOID="IT.DS.DSCONT" Mandatory="No" OrderNumber="13"/>
                <ItemRef ItemOID="IT.DS.DSNEXT" Mandatory="No" OrderNumber="14"/>
                <mdr:Class Name="EVENTS"/>
            </ItemGroupDef>
            <ItemGroupDef Domain="DV" Name="DV" OID="IGD.DV" Purpose="Data Collection"
                Repeating="No">
                <Description>
                    <TranslatedText xml:lang="en">Protocol Deviation</TranslatedText>
                </Description>
                <ItemRef ItemOID="IT.DV.STUDYID" Mandatory="No" OrderNumber="1"/>
                <ItemRef ItemOID="IT.DV.SITEID" Mandatory="No" OrderNumber="2"/>
                <ItemRef ItemOID="IT.DV.SUBJID" Mandatory="No" OrderNumber="3"/>
                <ItemRef ItemOID="IT.DV.DVCAT" Mandatory="No" OrderNumber="4"/>
                <ItemRef ItemOID="IT.DV.DVSCAT" Mandatory="No" OrderNumber="5"/>
                <ItemRef ItemOID="IT.DV.DVYN" Mandatory="No" OrderNumber="6"/>
                <ItemRef ItemOID="IT.DV.DVDECOD" Mandatory="No" OrderNumber="7"/>
                <ItemRef ItemOID="IT.DV.DVTERM" Mandatory="No" OrderNumber="8"/>
                <ItemRef ItemOID="IT.DV.DVSTDAT" Mandatory="No" OrderNumber="9"/>
                <ItemRef ItemOID="IT.DV.DVSTTIM" Mandatory="No" OrderNumber="10"/>
                <ItemRef ItemOID="IT.DV.DVENDAT" Mandatory="No" OrderNumber="11"/>
                <ItemRef ItemOID="IT.DV.DVENTIM" Mandatory="No" OrderNumber="12"/>
                <ItemRef ItemOID="IT.DV.DVSPID" Mandatory="No" OrderNumber="13"/>
                <mdr:Class Name="EVENTS"/>
            </ItemGroupDef>
            <ItemGroupDef Domain="HO" Name="HO" OID="IGD.HO" Purpose="Data Collection"
                Repeating="No">
                <Description>
                    <TranslatedText xml:lang="en">Healthcare Encounters</TranslatedText>
                </Description>
                <ItemRef ItemOID="IT.HO.STUDYID" Mandatory="No" OrderNumber="1"/>
                <ItemRef ItemOID="IT.HO.SITEID" Mandatory="No" OrderNumber="2"/>
                <ItemRef ItemOID="IT.HO.SUBJID" Mandatory="No" OrderNumber="3"/>
                <ItemRef ItemOID="IT.HO.HOCSTAT" Mandatory="No" OrderNumber="4"/>
                <ItemRef ItemOID="IT.HO.HOYN" Mandatory="No" OrderNumber="5"/>
                <ItemRef ItemOID="IT.HO.HOCAT" Mandatory="No" OrderNumber="6"/>
                <ItemRef ItemOID="IT.HO.HOSCAT" Mandatory="No" OrderNumber="7"/>
                <ItemRef ItemOID="IT.HO.HOOCCUR" Mandatory="No" OrderNumber="8"/>
                <ItemRef ItemOID="IT.HO.HOREASND" Mandatory="No" OrderNumber="9"/>
                <ItemRef ItemOID="IT.HO.HOSPID" Mandatory="No" OrderNumber="11"/>
                <ItemRef ItemOID="IT.HO.HOTERM" Mandatory="No" OrderNumber="12"/>
                <ItemRef ItemOID="IT.HO.HODECOD" Mandatory="No" OrderNumber="13"/>
                <ItemRef ItemOID="IT.HO.HOSTDAT" Mandatory="No" OrderNumber="14"/>
                <ItemRef ItemOID="IT.HO.HOSTTIM" Mandatory="No" OrderNumber="15"/>
                <ItemRef ItemOID="IT.HO.HOENDAT" Mandatory="No" OrderNumber="16"/>
                <ItemRef ItemOID="IT.HO.HOENTIM" Mandatory="No" OrderNumber="17"/>
                <ItemRef ItemOID="IT.HO.HOCDUR" Mandatory="No" OrderNumber="18"/>
                <ItemRef ItemOID="IT.HO.HOCDURU" Mandatory="No" OrderNumber="19"/>
                <ItemRef ItemOID="IT.HO.HOONGO" Mandatory="No" OrderNumber="20"/>
                <ItemRef ItemOID="IT.HO.HOREAS" Mandatory="No" OrderNumber="21"/>
                <ItemRef ItemOID="IT.HO.HOAENO" Mandatory="No" OrderNumber="22"/>
                <mdr:Class Name="EVENTS"/>
            </ItemGroupDef>
            <ItemGroupDef Domain="MH" Name="MH" OID="IGD.MH" Purpose="Data Collection"
                Repeating="No">
                <Description>
                    <TranslatedText xml:lang="en">Medical History</TranslatedText>
                </Description>
                <ItemRef ItemOID="IT.MH.STUDYID" Mandatory="No" OrderNumber="1"/>
                <ItemRef ItemOID="IT.MH.SITEID" Mandatory="No" OrderNumber="2"/>
                <ItemRef ItemOID="IT.MH.SUBJID" Mandatory="No" OrderNumber="3"/>
                <ItemRef ItemOID="IT.MH.MHYN" Mandatory="No" OrderNumber="4"/>
                <ItemRef ItemOID="IT.MH.MHCAT" Mandatory="No" OrderNumber="5"/>
                <ItemRef ItemOID="IT.MH.MHSCAT" Mandatory="No" OrderNumber="6"/>
                <ItemRef ItemOID="IT.MH.MHDAT" Mandatory="No" OrderNumber="7"/>
                <ItemRef ItemOID="IT.MH.MHSPID" Mandatory="No" OrderNumber="8"/>
                <ItemRef ItemOID="IT.MH.MHEVDTYP" Mandatory="No" OrderNumber="9"/>
                <ItemRef ItemOID="IT.MH.MHTERM" Mandatory="No" OrderNumber="10"/>
                <ItemRef ItemOID="IT.MH.MHOCCUR" Mandatory="No" OrderNumber="11"/>
                <ItemRef ItemOID="IT.MH.MHPRESP" Mandatory="No" OrderNumber="12"/>
                <ItemRef ItemOID="IT.MH.MHPRIOR" Mandatory="No" OrderNumber="13"/>
                <ItemRef ItemOID="IT.MH.MHONGO" Mandatory="No" OrderNumber="14"/>
                <ItemRef ItemOID="IT.MH.MHCTRL" Mandatory="No" OrderNumber="15"/>
                <ItemRef ItemOID="IT.MH.MHSTDAT" Mandatory="No" OrderNumber="16"/>
                <ItemRef ItemOID="IT.MH.MHENDAT" Mandatory="No" OrderNumber="17"/>
                <ItemRef ItemOID="IT.MH.MHLOC" Mandatory="No" OrderNumber="18"/>
                <ItemRef ItemOID="IT.MH.MHLAT" Mandatory="No" OrderNumber="19"/>
                <ItemRef ItemOID="IT.MH.MHDIR" Mandatory="No" OrderNumber="20"/>
                <ItemRef ItemOID="IT.MH.MHPORTOT" Mandatory="No" OrderNumber="21"/>
                <ItemRef ItemOID="IT.MH.MHMODIFY" Mandatory="No" OrderNumber="22"/>
                <ItemRef ItemOID="IT.MH.MHDECOD" Mandatory="No" OrderNumber="23"/>
                <ItemRef ItemOID="IT.MH.MHLLT" Mandatory="No" OrderNumber="24"/>
                <ItemRef ItemOID="IT.MH.MHLLTCD" Mandatory="No" OrderNumber="25"/>
                <ItemRef ItemOID="IT.MH.MHPTCD" Mandatory="No" OrderNumber="26"/>
                <ItemRef ItemOID="IT.MH.MHHLT" Mandatory="No" OrderNumber="27"/>
                <ItemRef ItemOID="IT.MH.MHHLTCD" Mandatory="No" OrderNumber="28"/>
                <ItemRef ItemOID="IT.MH.MHHLGT" Mandatory="No" OrderNumber="29"/>
                <ItemRef ItemOID="IT.MH.MHHLGTCD" Mandatory="No" OrderNumber="30"/>
                <ItemRef ItemOID="IT.MH.MHSOC" Mandatory="No" OrderNumber="31"/>
                <ItemRef ItemOID="IT.MH.MHSOCCD" Mandatory="No" OrderNumber="32"/>
                <mdr:Class Name="EVENTS"/>
            </ItemGroupDef>
            <ItemGroupDef Domain="DA" Name="DA" OID="IGD.DA" Purpose="Data Collection"
                Repeating="No">
                <Description>
                    <TranslatedText xml:lang="en">Drug Accountability</TranslatedText>
                </Description>
                <ItemRef ItemOID="IT.DA.STUDYID" Mandatory="No" OrderNumber="1"/>
                <ItemRef ItemOID="IT.DA.SITEID" Mandatory="No" OrderNumber="2"/>
                <ItemRef ItemOID="IT.DA.SUBJID" Mandatory="No" OrderNumber="3"/>
                <ItemRef ItemOID="IT.DA.VISIT" Mandatory="No" OrderNumber="4"/>
                <ItemRef ItemOID="IT.DA.VISDAT" Mandatory="No" OrderNumber="5"/>
                <ItemRef ItemOID="IT.DA.DAPERF" Mandatory="No" OrderNumber="6"/>
                <ItemRef ItemOID="IT.DA.DACAT" Mandatory="No" OrderNumber="7"/>
                <ItemRef ItemOID="IT.DA.DASCAT" Mandatory="No" OrderNumber="8"/>
                <ItemRef ItemOID="IT.DA.DADAT" Mandatory="No" OrderNumber="9"/>
                <ItemRef ItemOID="IT.DA.DAREFID" Mandatory="No" OrderNumber="10"/>
                <ItemRef ItemOID="IT.DA.DATEST" Mandatory="No" OrderNumber="11"/>
                <ItemRef ItemOID="IT.DA.DAORRES" Mandatory="No" OrderNumber="12"/>
                <ItemRef ItemOID="IT.DA.DAORRESU" Mandatory="No" OrderNumber="13"/>
                <mdr:Class Name="FINDINGS"/>
            </ItemGroupDef>
            <ItemGroupDef Domain="DD" Name="DD" OID="IGD.DD" Purpose="Data Collection"
                Repeating="No">
                <Description>
                    <TranslatedText xml:lang="en">Death Details</TranslatedText>
                </Description>
                <ItemRef ItemOID="IT.DD.STUDYID" Mandatory="No" OrderNumber="1"/>
                <ItemRef ItemOID="IT.DD.SITEID" Mandatory="No" OrderNumber="2"/>
                <ItemRef ItemOID="IT.DD.SUBJID" Mandatory="No" OrderNumber="3"/>
                <ItemRef ItemOID="IT.DD.VISIT" Mandatory="No" OrderNumber="4"/>
                <ItemRef ItemOID="IT.DD.VISDAT" Mandatory="No" OrderNumber="5"/>
                <ItemRef ItemOID="IT.DD.DDCAT" Mandatory="No" OrderNumber="6"/>
                <ItemRef ItemOID="IT.DD.DDSCAT" Mandatory="No" OrderNumber="7"/>
                <ItemRef ItemOID="IT.DD.DDYN" Mandatory="No" OrderNumber="8"/>
                <ItemRef ItemOID="IT.DD.DDDAT" Mandatory="No" OrderNumber="9"/>
                <ItemRef ItemOID="IT.DD.DDSPID" Mandatory="No" OrderNumber="10"/>
                <ItemRef ItemOID="IT.DD.DTHDAT" Mandatory="No" OrderNumber="11"/>
                <ItemRef ItemOID="IT.DD.DDTEST" Mandatory="No" OrderNumber="12"/>
                <ItemRef ItemOID="IT.DD.DDORRES" Mandatory="No" OrderNumber="13"/>
                <ItemRef ItemOID="IT.DD.DDEVAL" Mandatory="No" OrderNumber="14"/>
                <mdr:Class Name="FINDINGS"/>
            </ItemGroupDef>
            <ItemGroupDef Domain="EG" Name="EG" OID="IGD.EG" Purpose="Data Collection"
                Repeating="No">
                <Description>
                    <TranslatedText xml:lang="en">ECG Test Results</TranslatedText>
                </Description>
                <mdr:Class Name="FINDINGS"/>
            </ItemGroupDef>
            <ItemGroupDef Domain="IE" Name="IE" OID="IGD.IE" Purpose="Data Collection"
                Repeating="No">
                <Description>
                    <TranslatedText xml:lang="en">Inclusion/Exclusion Criteria Not
                        Met</TranslatedText>
                </Description>
                <ItemRef ItemOID="IT.IE.STUDYID" Mandatory="No" OrderNumber="1"/>
                <ItemRef ItemOID="IT.IE.SITEID" Mandatory="No" OrderNumber="2"/>
                <ItemRef ItemOID="IT.IE.SUBJID" Mandatory="No" OrderNumber="3"/>
                <ItemRef ItemOID="IT.IE.VISIT" Mandatory="No" OrderNumber="4"/>
                <ItemRef ItemOID="IT.IE.VISDAT" Mandatory="No" OrderNumber="5"/>
                <ItemRef ItemOID="IT.IE.IEYN" Mandatory="No" OrderNumber="6"/>
                <ItemRef ItemOID="IT.IE.IEDAT" Mandatory="No" OrderNumber="7"/>
                <ItemRef ItemOID="IT.IE.IECAT" Mandatory="No" OrderNumber="8"/>
                <ItemRef ItemOID="IT.IE.IESCAT" Mandatory="No" OrderNumber="9"/>
                <ItemRef ItemOID="IT.IE.IETESTCD" Mandatory="No" OrderNumber="10"/>
                <ItemRef ItemOID="IT.IE.IETEST" Mandatory="No" OrderNumber="11"/>
                <ItemRef ItemOID="IT.IE.IEORRES" Mandatory="No" OrderNumber="12"/>
                <mdr:Class Name="FINDINGS"/>
            </ItemGroupDef>
            <ItemGroupDef Domain="LB" Name="LB" OID="IGD.LB" Purpose="Data Collection"
                Repeating="No">
                <Description>
                    <TranslatedText xml:lang="en">Laboratory Test Findings</TranslatedText>
                </Description>
                <mdr:Class Name="FINDINGS"/>
            </ItemGroupDef>
            <ItemGroupDef Domain="MI" Name="MI" OID="IGD.MI" Purpose="Data Collection"
                Repeating="No">
                <Description>
                    <TranslatedText xml:lang="en">Microscopic Findings</TranslatedText>
                </Description>
                <mdr:Class Name="FINDINGS"/>
            </ItemGroupDef>
            <ItemGroupDef Domain="PC" Name="PC" OID="IGD.PC" Purpose="Data Collection"
                Repeating="No">
                <Description>
                    <TranslatedText xml:lang="en">Pharmacokinetics</TranslatedText>
                </Description>
                <mdr:Class Name="FINDINGS"/>
            </ItemGroupDef>
            <ItemGroupDef Domain="PE" Name="PE" OID="IGD.PE" Purpose="Data Collection"
                Repeating="No">
                <Description>
                    <TranslatedText xml:lang="en">Physical Exam</TranslatedText>
                </Description>
                <mdr:Class Name="FINDINGS"/>
            </ItemGroupDef>
            <ItemGroupDef Domain="SC" Name="SC" OID="IGD.SC" Purpose="Data Collection"
                Repeating="No">
                <Description>
                    <TranslatedText xml:lang="en">Subject Characteristics</TranslatedText>
                </Description>
                <ItemRef ItemOID="IT.SC.STUDYID" Mandatory="No" OrderNumber="1"/>
                <ItemRef ItemOID="IT.SC.SITEID" Mandatory="No" OrderNumber="2"/>
                <ItemRef ItemOID="IT.SC.SUBJID" Mandatory="No" OrderNumber="3"/>
                <ItemRef ItemOID="IT.SC.VISIT" Mandatory="No" OrderNumber="4"/>
                <ItemRef ItemOID="IT.SC.VISDAT" Mandatory="No" OrderNumber="5"/>
                <ItemRef ItemOID="IT.SC.SCCAT" Mandatory="No" OrderNumber="6"/>
                <ItemRef ItemOID="IT.SC.SCSCAT" Mandatory="No" OrderNumber="7"/>
                <ItemRef ItemOID="IT.SC.SCPERF" Mandatory="No" OrderNumber="8"/>
                <ItemRef ItemOID="IT.SC.SCSPID" Mandatory="No" OrderNumber="9"/>
                <ItemRef ItemOID="IT.SC.SCDAT" Mandatory="No" OrderNumber="10"/>
                <ItemRef ItemOID="IT.SC.SCTEST" Mandatory="No" OrderNumber="11"/>
                <ItemRef ItemOID="IT.SC.SCORRES" Mandatory="No" OrderNumber="12"/>
                <mdr:Class Name="FINDINGS"/>
            </ItemGroupDef>
            <ItemGroupDef Domain="RP" Name="RP" OID="IGD.RP" Purpose="Data Collection"
                Repeating="No">
                <Description>
                    <TranslatedText xml:lang="en">Reproductive System Findings</TranslatedText>
                </Description>
                <ItemRef ItemOID="IT.RP.STUDYID" Mandatory="No" OrderNumber="1"/>
                <ItemRef ItemOID="IT.RP.SITEID" Mandatory="No" OrderNumber="2"/>
                <ItemRef ItemOID="IT.RP.SUBJID" Mandatory="No" OrderNumber="3"/>
                <ItemRef ItemOID="IT.RP.VISIT" Mandatory="No" OrderNumber="4"/>
                <ItemRef ItemOID="IT.RP.VISDAT" Mandatory="No" OrderNumber="5"/>
                <ItemRef ItemOID="IT.RP.RPCAT" Mandatory="No" OrderNumber="6"/>
                <ItemRef ItemOID="IT.RP.RPSCAT" Mandatory="No" OrderNumber="7"/>
                <ItemRef ItemOID="IT.RP.RPYN" Mandatory="No" OrderNumber="8"/>
                <ItemRef ItemOID="IT.RP.RPSPID" Mandatory="No" OrderNumber="9"/>
                <ItemRef ItemOID="IT.RP.RPTEST" Mandatory="No" OrderNumber="10"/>
                <ItemRef ItemOID="IT.RP.RPORRES" Mandatory="No" OrderNumber="11"/>
                <ItemRef ItemOID="IT.RP.RPORRESU" Mandatory="No" OrderNumber="12"/>
                <ItemRef ItemOID="IT.RP.RPDAT" Mandatory="No" OrderNumber="13"/>
                <ItemRef ItemOID="IT.RP.RPREASND" Mandatory="No" OrderNumber="14"/>
                <mdr:Class Name="FINDINGS"/>
            </ItemGroupDef>
            <ItemGroupDef Domain="SR" Name="SR" OID="IGD.SR" Purpose="Data Collection"
                Repeating="No">
                <Description>
                    <TranslatedText xml:lang="en">Skin Response Findings</TranslatedText>
                </Description>
                <ItemRef ItemOID="IT.SR.STUDYID" Mandatory="No" OrderNumber="1"/>
                <ItemRef ItemOID="IT.SR.SITEID" Mandatory="No" OrderNumber="2"/>
                <ItemRef ItemOID="IT.SR.SUBJID" Mandatory="No" OrderNumber="3"/>
                <ItemRef ItemOID="IT.SR.VISIT" Mandatory="No" OrderNumber="4"/>
                <ItemRef ItemOID="IT.SR.VISDAT" Mandatory="No" OrderNumber="5"/>
                <ItemRef ItemOID="IT.SR.SRPERF" Mandatory="No" OrderNumber="6"/>
                <ItemRef ItemOID="IT.SR.SRREASND" Mandatory="No" OrderNumber="7"/>
                <ItemRef ItemOID="IT.SR.SRCAT" Mandatory="No" OrderNumber="8"/>
                <ItemRef ItemOID="IT.SR.SRSCAT" Mandatory="No" OrderNumber="8"/>
                <ItemRef ItemOID="IT.SR.SRSPID" Mandatory="No" OrderNumber="9"/>
                <ItemRef ItemOID="IT.SR.SROBJ" Mandatory="No" OrderNumber="10"/>
                <ItemRef ItemOID="IT.SR.SRRFTDAT" Mandatory="No" OrderNumber="11"/>
                <ItemRef ItemOID="IT.SR.SRRFTTIM" Mandatory="No" OrderNumber="12"/>
                <ItemRef ItemOID="IT.SR.SRLOC" Mandatory="No" OrderNumber="13"/>
                <ItemRef ItemOID="IT.SR.SRLAT" Mandatory="No" OrderNumber="14"/>
                <ItemRef ItemOID="IT.SR.SRTEST" Mandatory="No" OrderNumber="15"/>
                <ItemRef ItemOID="IT.SR.SRTPT" Mandatory="No" OrderNumber="16"/>
                <ItemRef ItemOID="IT.SR.SRDAT" Mandatory="No" OrderNumber="17"/>
                <ItemRef ItemOID="IT.SR.SRTIM" Mandatory="No" OrderNumber="18"/>
                <ItemRef ItemOID="IT.SR.SRDIR" Mandatory="No" OrderNumber="19"/>
                <ItemRef ItemOID="IT.SR.SREVAL" Mandatory="No" OrderNumber="20"/>
                <ItemRef ItemOID="IT.SR.SREVALID" Mandatory="No" OrderNumber="21"/>
                <ItemRef ItemOID="IT.SR.SRORRES" Mandatory="No" OrderNumber="22"/>
                <ItemRef ItemOID="IT.SR.SRORRESU" Mandatory="No" OrderNumber="23"/>
                <ItemRef ItemOID="IT.SR.SRNRIND" Mandatory="No" OrderNumber="24"/>
                <ItemRef ItemOID="IT.SR.SRCLSIG" Mandatory="No" OrderNumber="25"/>
                <mdr:Class Name="FINDINGS"/>
            </ItemGroupDef>
            <ItemGroupDef Domain="VS" Name="VS" OID="IGD.VS" Purpose="Data Collection"
                Repeating="No">
                <Description>
                    <TranslatedText xml:lang="en">Vital Signs</TranslatedText>
                </Description>
                <ItemRef ItemOID="IT.VS.STUDYID" Mandatory="No" OrderNumber="1"/>
                <ItemRef ItemOID="IT.VS.SITEID" Mandatory="No" OrderNumber="2"/>
                <ItemRef ItemOID="IT.VS.SUBJID" Mandatory="No" OrderNumber="3"/>
                <ItemRef ItemOID="IT.VS.VISIT" Mandatory="No" OrderNumber="4"/>
                <ItemRef ItemOID="IT.VS.VISDAT" Mandatory="No" OrderNumber="5"/>
                <ItemRef ItemOID="IT.VS.VSPERF" Mandatory="No" OrderNumber="6"/>
                <ItemRef ItemOID="IT.VS.VSDAT" Mandatory="No" OrderNumber="7"/>
                <ItemRef ItemOID="IT.VS.VSTIM" Mandatory="No" OrderNumber="8"/>
                <ItemRef ItemOID="IT.VS.VSSPID" Mandatory="No" OrderNumber="9"/>
                <ItemRef ItemOID="IT.VS.VSTPT" Mandatory="No" OrderNumber="10"/>
                <ItemRef ItemOID="IT.VS.VSCAT" Mandatory="No" OrderNumber="11"/>
                <ItemRef ItemOID="IT.VS.VSSCAT" Mandatory="No" OrderNumber="12"/>
                <ItemRef ItemOID="IT.VS.VSREPNUM" Mandatory="No" OrderNumber="13"/>
                <ItemRef ItemOID="IT.VS.VSTEST" Mandatory="No" OrderNumber="14"/>
                <ItemRef ItemOID="IT.VS.VSSTAT" Mandatory="No" OrderNumber="15"/>
                <ItemRef ItemOID="IT.VS.VSORRES" Mandatory="No" OrderNumber="16"/>
                <ItemRef ItemOID="IT.VS.VSORRESU" Mandatory="No" OrderNumber="17"/>
                <ItemRef ItemOID="IT.VS.VSCLSIG" Mandatory="No" OrderNumber="18"/>
                <ItemRef ItemOID="IT.VS.VSLOC" Mandatory="No" OrderNumber="19"/>
                <ItemRef ItemOID="IT.VS.VSPOS" Mandatory="No" OrderNumber="20"/>
                <ItemRef ItemOID="IT.VS.VSDIR" Mandatory="No" OrderNumber="21"/>
                <ItemRef ItemOID="IT.VS.VSLAT" Mandatory="No" OrderNumber="22"/>
                <mdr:Class Name="FINDINGS"/>
            </ItemGroupDef>
            <ItemGroupDef Domain="FA" Name="FA" OID="IGD.FA" Purpose="Data Collection"
                Repeating="No">
                <Description>
                    <TranslatedText xml:lang="en">Findings About</TranslatedText>
                </Description>
                <ItemRef ItemOID="IT.FA.STUDYID" Mandatory="No" OrderNumber="1"/>
                <ItemRef ItemOID="IT.FA.SITEID" Mandatory="No" OrderNumber="2"/>
                <ItemRef ItemOID="IT.FA.SUBJID" Mandatory="No" OrderNumber="3"/>
                <ItemRef ItemOID="IT.FA.FAOBJ" Mandatory="No" OrderNumber="4"/>
                <ItemRef ItemOID="IT.FA.FAYN" Mandatory="No" OrderNumber="5"/>
                <ItemRef ItemOID="IT.FA.FAPERF" Mandatory="No" OrderNumber="6"/>
                <ItemRef ItemOID="IT.FA.FATEST" Mandatory="No" OrderNumber="7"/>
                <ItemRef ItemOID="IT.FA.FATSTDTL" Mandatory="No" OrderNumber="8"/>
                <ItemRef ItemOID="IT.FA.FACAT" Mandatory="No" OrderNumber="9"/>
                <ItemRef ItemOID="IT.FA.FASCAT" Mandatory="No" OrderNumber="10"/>
                <ItemRef ItemOID="IT.FA.FAPOS" Mandatory="No" OrderNumber="11"/>
                <ItemRef ItemOID="IT.FA.FAORRES" Mandatory="No" OrderNumber="12"/>
                <ItemRef ItemOID="IT.FA.FAORRESU" Mandatory="No" OrderNumber="13"/>
                <ItemRef ItemOID="IT.FA.FAORNRLO" Mandatory="No" OrderNumber="14"/>
                <ItemRef ItemOID="IT.FA.FAORNRHI" Mandatory="No" OrderNumber="15"/>
                <ItemRef ItemOID="IT.FA.FANRIND" Mandatory="No" OrderNumber="16"/>
                <ItemRef ItemOID="IT.FA.FASTAT" Mandatory="No" OrderNumber="17"/>
                <ItemRef ItemOID="IT.FA.FAREASND" Mandatory="No" OrderNumber="18"/>
                <ItemRef ItemOID="IT.FA.FASPEC" Mandatory="No" OrderNumber="19"/>
                <ItemRef ItemOID="IT.FA.FASPCCND" Mandatory="No" OrderNumber="20"/>
                <ItemRef ItemOID="IT.FA.FALOC" Mandatory="No" OrderNumber="21"/>
                <ItemRef ItemOID="IT.FA.FALAT" Mandatory="No" OrderNumber="22"/>
                <ItemRef ItemOID="IT.FA.FADIR" Mandatory="No" OrderNumber="23"/>
                <ItemRef ItemOID="IT.FA.FAPORTOT" Mandatory="No" OrderNumber="24"/>
                <ItemRef ItemOID="IT.FA.FAMETHOD" Mandatory="No" OrderNumber="25"/>
                <ItemRef ItemOID="IT.FA.FALEAD" Mandatory="No" OrderNumber="26"/>
                <ItemRef ItemOID="IT.FA.FAFAST" Mandatory="No" OrderNumber="27"/>
                <ItemRef ItemOID="IT.FA.FAEVAL" Mandatory="No" OrderNumber="28"/>
                <ItemRef ItemOID="IT.FA.FAEVALID" Mandatory="No" OrderNumber="29"/>
                <ItemRef ItemOID="IT.FA.FACLSIG" Mandatory="No" OrderNumber="30"/>
                <mdr:Class Name="FINDINGS"/>
            </ItemGroupDef>
            <ItemGroupDef Domain="CO" Name="CO" OID="IGD.CO" Purpose="Data Collection"
                Repeating="No">
                <Description>
                    <TranslatedText xml:lang="en">Comments</TranslatedText>
                </Description>
                <ItemRef ItemOID="IT.CO.STUDYID" Mandatory="No" OrderNumber="1"/>
                <ItemRef ItemOID="IT.CO.SITEID" Mandatory="No" OrderNumber="2"/>
                <ItemRef ItemOID="IT.CO.SUBJID" Mandatory="No" OrderNumber="3"/>
                <ItemRef ItemOID="IT.CO.COVAL" Mandatory="No" OrderNumber="4"/>
                <mdr:Class Name="SPECIAL PURPOSE"/>
            </ItemGroupDef>
            <ItemGroupDef Domain="DM" Name="DM" OID="IGD.DM" Purpose="Data Collection"
                Repeating="No">
                <Description>
                    <TranslatedText xml:lang="en">Demographics</TranslatedText>
                </Description>
                <ItemRef ItemOID="IT.DM.STUDYID" Mandatory="No" OrderNumber="1"/>
                <ItemRef ItemOID="IT.DM.SITEID" Mandatory="No" OrderNumber="2"/>
                <ItemRef ItemOID="IT.DM.SUBJID" Mandatory="No" OrderNumber="3"/>
                <ItemRef ItemOID="IT.DM.BRTHDAT" Mandatory="No" OrderNumber="4"/>
                <ItemRef ItemOID="IT.DM.BRTHYY" Mandatory="No" OrderNumber="5"/>
                <ItemRef ItemOID="IT.DM.BRTHMO" Mandatory="No" OrderNumber="6"/>
                <ItemRef ItemOID="IT.DM.BRTHDD" Mandatory="No" OrderNumber="7"/>
                <ItemRef ItemOID="IT.DM.BRTHTIM" Mandatory="No" OrderNumber="8"/>
                <ItemRef ItemOID="IT.DM.AGE" Mandatory="No" OrderNumber="9"/>
                <ItemRef ItemOID="IT.DM.AGEU" Mandatory="No" OrderNumber="10"/>
                <ItemRef ItemOID="IT.DM.DMDAT" Mandatory="No" OrderNumber="11"/>
                <ItemRef ItemOID="IT.DM.SEX" Mandatory="No" OrderNumber="12"/>
                <ItemRef ItemOID="IT.DM.ETHNIC" Mandatory="No" OrderNumber="13"/>
                <ItemRef ItemOID="IT.DM.CETHNIC" Mandatory="No" OrderNumber="14"/>
                <ItemRef ItemOID="IT.DM.RACE" Mandatory="No" OrderNumber="15"/>
                <ItemRef ItemOID="IT.DM.CRACE" Mandatory="No" OrderNumber="16"/>
                <ItemRef ItemOID="IT.DM.RACEOTH" Mandatory="No" OrderNumber="17"/>
                <mdr:Class Name="SPECIAL PURPOSE"/>
            </ItemGroupDef>
            <ItemGroupDef Domain="Drug Accountability" Name="DA.Denormalized"
                OID="IGD.DA.Denormalized" Purpose="Data Collection" Repeating="No">
                <Description>
                    <TranslatedText xml:lang="en"/>
                </Description>
                <ItemRef ItemOID="IT.DA.STUDYID" Mandatory="No" OrderNumber="1"/>
                <ItemRef ItemOID="IT.DA.SITEID" Mandatory="No" OrderNumber="2"/>
                <ItemRef ItemOID="IT.DA.SUBJID" Mandatory="No" OrderNumber="3"/>
                <ItemRef ItemOID="IT.DA.VISIT" Mandatory="No" OrderNumber="4"/>
                <ItemRef ItemOID="IT.DA.VISDAT" Mandatory="No" OrderNumber="5"/>
                <ItemRef ItemOID="IT.DA.DAPERF" Mandatory="No" OrderNumber="6"/>
                <ItemRef ItemOID="IT.DA.DACAT" Mandatory="No" OrderNumber="7"/>
                <ItemRef ItemOID="IT.DA.DASCAT" Mandatory="No" OrderNumber="8"/>
                <ItemRef ItemOID="IT.DA.DADAT" Mandatory="No" OrderNumber="9"/>
                <ItemRef ItemOID="IT.DA.DAREFID" Mandatory="No" OrderNumber="10"/>
                <ItemRef ItemOID="IT.DA.DATEST" Mandatory="No" OrderNumber="11"/>
                <ItemRef ItemOID="IT.DA.DAORRES" Mandatory="No" OrderNumber="12"/>
                <ItemRef ItemOID="IT.DA.DAORRESU" Mandatory="No" OrderNumber="13"/>
                <ItemRef ItemOID="IT.DA.Denormalized.DADAT" Mandatory="No" OrderNumber="14"/>
                <ItemRef ItemOID="IT.DA.Denormalized.DISPAMT_DAPERF" Mandatory="No" OrderNumber="15"/>
                <ItemRef ItemOID="IT.DA.Denormalized.DISPAMT_DACAT" Mandatory="No" OrderNumber="16"/>
                <ItemRef ItemOID="IT.DA.Denormalized.DISPAMT_DASCAT" Mandatory="No" OrderNumber="17"/>
                <ItemRef ItemOID="IT.DA.Denormalized.DISPAMT_DAREFID" Mandatory="No"
                    OrderNumber="18"/>
                <ItemRef ItemOID="IT.DA.Denormalized.DISPAMT_DAORRES" Mandatory="No"
                    OrderNumber="19"/>
                <ItemRef ItemOID="IT.DA.Denormalized.DISPAMT_DAORRESU" Mandatory="No"
                    OrderNumber="20"/>
                <ItemRef ItemOID="IT.DA.Denormalized.RETAMT_DAPERF" Mandatory="No" OrderNumber="21"/>
                <ItemRef ItemOID="IT.DA.Denormalized.RETAMT_DACAT" Mandatory="No" OrderNumber="22"/>
                <ItemRef ItemOID="IT.DA.Denormalized.RETAMT_DASCAT" Mandatory="No" OrderNumber="23"/>
                <ItemRef ItemOID="IT.DA.Denormalized.RETAMT_DAREFID" Mandatory="No" OrderNumber="24"/>
                <ItemRef ItemOID="IT.DA.Denormalized.RETAMT_DAORRES" Mandatory="No" OrderNumber="25"/>
                <ItemRef ItemOID="IT.DA.Denormalized.RETAMT_DAORRESU" Mandatory="No"
                    OrderNumber="26"/>
                <mdr:Class Name="FINDINGS"/>
            </ItemGroupDef>
            <ItemGroupDef Domain="Drug Accountability" Name="DA.HorizontalGeneric"
                OID="IGD.DA.HorizontalGeneric" Purpose="Data Collection" Repeating="No">
                <Description>
                    <TranslatedText xml:lang="en"/>
                </Description>
                <ItemRef ItemOID="IT.DA.STUDYID" Mandatory="No" OrderNumber="1"/>
                <ItemRef ItemOID="IT.DA.SITEID" Mandatory="No" OrderNumber="2"/>
                <ItemRef ItemOID="IT.DA.SUBJID" Mandatory="No" OrderNumber="3"/>
                <ItemRef ItemOID="IT.DA.VISIT" Mandatory="No" OrderNumber="4"/>
                <ItemRef ItemOID="IT.DA.VISDAT" Mandatory="No" OrderNumber="5"/>
                <ItemRef ItemOID="IT.DA.DAPERF" Mandatory="No" OrderNumber="6"/>
                <ItemRef ItemOID="IT.DA.DACAT" Mandatory="No" OrderNumber="7"/>
                <ItemRef ItemOID="IT.DA.DASCAT" Mandatory="No" OrderNumber="8"/>
                <ItemRef ItemOID="IT.DA.DADAT" Mandatory="No" OrderNumber="9"/>
                <ItemRef ItemOID="IT.DA.DAREFID" Mandatory="No" OrderNumber="10"/>
                <ItemRef ItemOID="IT.DA.DATEST" Mandatory="No" OrderNumber="11"/>
                <ItemRef ItemOID="IT.DA.DAORRES" Mandatory="No" OrderNumber="12"/>
                <ItemRef ItemOID="IT.DA.DAORRESU" Mandatory="No" OrderNumber="13"/>
                <ItemRef ItemOID="IT.DA.HorizontalGeneric.STUDYID" Mandatory="No" OrderNumber="14"/>
                <ItemRef ItemOID="IT.DA.HorizontalGeneric.SITEID" Mandatory="No" OrderNumber="15"/>
                <ItemRef ItemOID="IT.DA.HorizontalGeneric.SUBJID" Mandatory="No" OrderNumber="16"/>
                <ItemRef ItemOID="IT.DA.HorizontalGeneric.VISIT" Mandatory="No" OrderNumber="17"/>
                <ItemRef ItemOID="IT.DA.HorizontalGeneric.VISDAT" Mandatory="No" OrderNumber="18"/>
                <ItemRef ItemOID="IT.DA.HorizontalGeneric.DAGRPID" Mandatory="No" OrderNumber="19"/>
                <ItemRef ItemOID="IT.DA.HorizontalGeneric.[DATESTCD]_DAPERF" Mandatory="No"
                    OrderNumber="20"/>
                <ItemRef ItemOID="IT.DA.HorizontalGeneric.[DATESTCD]_DACAT" Mandatory="No"
                    OrderNumber="21"/>
                <ItemRef ItemOID="IT.DA.HorizontalGeneric.[DATESTCD]_DASCAT" Mandatory="No"
                    OrderNumber="22"/>
                <ItemRef ItemOID="IT.DA.HorizontalGeneric.[DATESTCD]_DAREFID" Mandatory="No"
                    OrderNumber="23"/>
                <ItemRef ItemOID="IT.DA.HorizontalGeneric.[DATESTCD]_DADAT" Mandatory="No"
                    OrderNumber="24"/>
                <ItemRef ItemOID="IT.DA.HorizontalGeneric.[DATESTCD]_DAORRES" Mandatory="No"
                    OrderNumber="25"/>
                <ItemRef ItemOID="IT.DA.HorizontalGeneric.[DATESTCD]_DAORRESU" Mandatory="No"
                    OrderNumber="26"/>
                <mdr:Class Name="FINDINGS"/>
            </ItemGroupDef>
            <ItemGroupDef Domain="Death Details" Name="DD.Denormalized" OID="IGD.DD.Denormalized"
                Purpose="Data Collection" Repeating="No">
                <Description>
                    <TranslatedText xml:lang="en"/>
                </Description>
                <ItemRef ItemOID="IT.DD.STUDYID" Mandatory="No" OrderNumber="1"/>
                <ItemRef ItemOID="IT.DD.SITEID" Mandatory="No" OrderNumber="2"/>
                <ItemRef ItemOID="IT.DD.SUBJID" Mandatory="No" OrderNumber="3"/>
                <ItemRef ItemOID="IT.DD.VISIT" Mandatory="No" OrderNumber="4"/>
                <ItemRef ItemOID="IT.DD.VISDAT" Mandatory="No" OrderNumber="5"/>
                <ItemRef ItemOID="IT.DD.DDCAT" Mandatory="No" OrderNumber="6"/>
                <ItemRef ItemOID="IT.DD.DDSCAT" Mandatory="No" OrderNumber="7"/>
                <ItemRef ItemOID="IT.DD.DDYN" Mandatory="No" OrderNumber="8"/>
                <ItemRef ItemOID="IT.DD.DDDAT" Mandatory="No" OrderNumber="9"/>
                <ItemRef ItemOID="IT.DD.DDSPID" Mandatory="No" OrderNumber="10"/>
                <ItemRef ItemOID="IT.DD.DTHDAT" Mandatory="No" OrderNumber="11"/>
                <ItemRef ItemOID="IT.DD.DDTEST" Mandatory="No" OrderNumber="12"/>
                <ItemRef ItemOID="IT.DD.DDORRES" Mandatory="No" OrderNumber="13"/>
                <ItemRef ItemOID="IT.DD.DDEVAL" Mandatory="No" OrderNumber="14"/>
                <ItemRef ItemOID="IT.DD.Denormalized.DTHDAT" Mandatory="No" OrderNumber="15"/>
                <ItemRef ItemOID="IT.DD.Denormalized.PRCDTH_DDORRES" Mandatory="No" OrderNumber="16"/>
                <ItemRef ItemOID="IT.DD.Denormalized.SECDTH_DDORRES" Mandatory="No" OrderNumber="17"/>
                <ItemRef ItemOID="IT.DD.Denormalized.LOCDTH_DDORRES" Mandatory="No" OrderNumber="18"/>
                <mdr:Class Name="FINDINGS"/>
            </ItemGroupDef>
            <ItemGroupDef Domain="Death Details" Name="DD.HorizontalGeneric"
                OID="IGD.DD.HorizontalGeneric" Purpose="Data Collection" Repeating="No">
                <Description>
                    <TranslatedText xml:lang="en"/>
                </Description>
                <ItemRef ItemOID="IT.DD.STUDYID" Mandatory="No" OrderNumber="1"/>
                <ItemRef ItemOID="IT.DD.SITEID" Mandatory="No" OrderNumber="2"/>
                <ItemRef ItemOID="IT.DD.SUBJID" Mandatory="No" OrderNumber="3"/>
                <ItemRef ItemOID="IT.DD.VISIT" Mandatory="No" OrderNumber="4"/>
                <ItemRef ItemOID="IT.DD.VISDAT" Mandatory="No" OrderNumber="5"/>
                <ItemRef ItemOID="IT.DD.DDCAT" Mandatory="No" OrderNumber="6"/>
                <ItemRef ItemOID="IT.DD.DDSCAT" Mandatory="No" OrderNumber="7"/>
                <ItemRef ItemOID="IT.DD.DDYN" Mandatory="No" OrderNumber="8"/>
                <ItemRef ItemOID="IT.DD.DDDAT" Mandatory="No" OrderNumber="9"/>
                <ItemRef ItemOID="IT.DD.DDSPID" Mandatory="No" OrderNumber="10"/>
                <ItemRef ItemOID="IT.DD.DTHDAT" Mandatory="No" OrderNumber="11"/>
                <ItemRef ItemOID="IT.DD.DDTEST" Mandatory="No" OrderNumber="12"/>
                <ItemRef ItemOID="IT.DD.DDORRES" Mandatory="No" OrderNumber="13"/>
                <ItemRef ItemOID="IT.DD.DDEVAL" Mandatory="No" OrderNumber="14"/>
                <ItemRef ItemOID="IT.DD.HorizontalGeneric.STUDYID" Mandatory="No" OrderNumber="15"/>
                <ItemRef ItemOID="IT.DD.HorizontalGeneric.SITEID" Mandatory="No" OrderNumber="16"/>
                <ItemRef ItemOID="IT.DD.HorizontalGeneric.SUBJID" Mandatory="No" OrderNumber="17"/>
                <ItemRef ItemOID="IT.DD.HorizontalGeneric.VISIT" Mandatory="No" OrderNumber="18"/>
                <ItemRef ItemOID="IT.DD.HorizontalGeneric.VISDAT" Mandatory="No" OrderNumber="19"/>
                <ItemRef ItemOID="IT.DD.HorizontalGeneric.DTHDAT" Mandatory="No" OrderNumber="20"/>
                <ItemRef ItemOID="IT.DD.HorizontalGeneric.DDCAT" Mandatory="No" OrderNumber="21"/>
                <ItemRef ItemOID="IT.DD.HorizontalGeneric.DDSCAT" Mandatory="No" OrderNumber="22"/>
                <ItemRef ItemOID="IT.DD.HorizontalGeneric.DDYN" Mandatory="No" OrderNumber="23"/>
                <ItemRef ItemOID="IT.DD.HorizontalGeneric.[DDTESTCD]_DDDAT" Mandatory="No"
                    OrderNumber="24"/>
                <ItemRef ItemOID="IT.DD.HorizontalGeneric.DDSPID" Mandatory="No" OrderNumber="25"/>
                <ItemRef ItemOID="IT.DD.HorizontalGeneric.DDTESTCD_DDORRES" Mandatory="No"
                    OrderNumber="26"/>
                <ItemRef ItemOID="IT.DD.HorizontalGeneric.DDEVAL" Mandatory="No" OrderNumber="27"/>
                <mdr:Class Name="FINDINGS"/>
            </ItemGroupDef>
            <ItemGroupDef Domain="ECG Test Results" Name="EG.CentralReading"
                OID="IGD.EG.CentralReading" Purpose="Data Collection" Repeating="No">
                <Description>
                    <TranslatedText xml:lang="en"/>
                </Description>
                <ItemRef ItemOID="IT.EG.CentralReading.STUDYID" Mandatory="No" OrderNumber="1"/>
                <ItemRef ItemOID="IT.EG.CentralReading.SITEID" Mandatory="No" OrderNumber="2"/>
                <ItemRef ItemOID="IT.EG.CentralReading.SUBJID" Mandatory="No" OrderNumber="3"/>
                <ItemRef ItemOID="IT.EG.CentralReading.VISIT" Mandatory="No" OrderNumber="4"/>
                <ItemRef ItemOID="IT.EG.CentralReading.VISDAT" Mandatory="No" OrderNumber="5"/>
                <ItemRef ItemOID="IT.EG.CentralReading.EGCAT" Mandatory="No" OrderNumber="6"/>
                <ItemRef ItemOID="IT.EG.CentralReading.EGSCAT" Mandatory="No" OrderNumber="7"/>
                <ItemRef ItemOID="IT.EG.CentralReading.EGPERF" Mandatory="No" OrderNumber="8"/>
                <ItemRef ItemOID="IT.EG.CentralReading.EGREFID" Mandatory="No" OrderNumber="9"/>
                <ItemRef ItemOID="IT.EG.CentralReading.EGMETHOD" Mandatory="No" OrderNumber="10"/>
                <ItemRef ItemOID="IT.EG.CentralReading.EGPOS" Mandatory="No" OrderNumber="11"/>
                <ItemRef ItemOID="IT.EG.CentralReading.EGDAT" Mandatory="No" OrderNumber="12"/>
                <ItemRef ItemOID="IT.EG.CentralReading.EGTPT" Mandatory="No" OrderNumber="13"/>
                <ItemRef ItemOID="IT.EG.CentralReading.EGTIM" Mandatory="No" OrderNumber="14"/>
                <mdr:Class Name="FINDINGS"/>
            </ItemGroupDef>
            <ItemGroupDef Domain="ECG Test Results" Name="EG.CentralReadingIA"
                OID="IGD.EG.CentralReadingIA" Purpose="Data Collection" Repeating="No">
                <Description>
                    <TranslatedText xml:lang="en"/>
                </Description>
                <ItemRef ItemOID="IT.EG.CentralReadingIA.STUDYID" Mandatory="No" OrderNumber="1"/>
                <ItemRef ItemOID="IT.EG.CentralReadingIA.SITEID" Mandatory="No" OrderNumber="2"/>
                <ItemRef ItemOID="IT.EG.CentralReadingIA.SUBJID" Mandatory="No" OrderNumber="3"/>
                <ItemRef ItemOID="IT.EG.CentralReadingIA.VISIT" Mandatory="No" OrderNumber="4"/>
                <ItemRef ItemOID="IT.EG.CentralReadingIA.VISDAT" Mandatory="No" OrderNumber="5"/>
                <ItemRef ItemOID="IT.EG.CentralReadingIA.EGCAT" Mandatory="No" OrderNumber="6"/>
                <ItemRef ItemOID="IT.EG.CentralReadingIA.EGSCAT" Mandatory="No" OrderNumber="7"/>
                <ItemRef ItemOID="IT.EG.CentralReadingIA.EGPERF" Mandatory="No" OrderNumber="9"/>
                <ItemRef ItemOID="IT.EG.CentralReadingIA.EGREFID" Mandatory="No" OrderNumber="10"/>
                <ItemRef ItemOID="IT.EG.CentralReadingIA.EGMETHOD" Mandatory="No" OrderNumber="11"/>
                <ItemRef ItemOID="IT.EG.CentralReadingIA.EGPOS" Mandatory="No" OrderNumber="12"/>
                <ItemRef ItemOID="IT.EG.CentralReadingIA.EGDAT" Mandatory="No" OrderNumber="13"/>
                <ItemRef ItemOID="IT.EG.CentralReadingIA.EGTPT" Mandatory="No" OrderNumber="14"/>
                <ItemRef ItemOID="IT.EG.CentralReadingIA.EGTIM" Mandatory="No" OrderNumber="15"/>
                <ItemRef ItemOID="IT.EG.CentralReadingIA.EGEVAL" Mandatory="No" OrderNumber="16"/>
                <ItemRef ItemOID="IT.EG.CentralReadingIA.INTP_EGORRES" Mandatory="No"
                    OrderNumber="17"/>
                <ItemRef ItemOID="IT.EG.CentralReadingIA.EGCLSIG" Mandatory="No" OrderNumber="18"/>
                <ItemRef ItemOID="IT.EG.CentralReadingIA.EGMHNO" Mandatory="No" OrderNumber="19"/>
                <ItemRef ItemOID="IT.EG.CentralReadingIA.EGAENO" Mandatory="No" OrderNumber="20"/>
                <mdr:Class Name="FINDINGS"/>
            </ItemGroupDef>
            <ItemGroupDef Domain="ECG Test Results" Name="EG.LocalReading" OID="IGD.EG.LocalReading"
                Purpose="Data Collection" Repeating="No">
                <Description>
                    <TranslatedText xml:lang="en"/>
                </Description>
                <ItemRef ItemOID="IT.EG.LocalReading.STUDYID" Mandatory="No" OrderNumber="1"/>
                <ItemRef ItemOID="IT.EG.LocalReading.SITEID" Mandatory="No" OrderNumber="2"/>
                <ItemRef ItemOID="IT.EG.LocalReading.SUBJID" Mandatory="No" OrderNumber="3"/>
                <ItemRef ItemOID="IT.EG.LocalReading.VISIT" Mandatory="No" OrderNumber="4"/>
                <ItemRef ItemOID="IT.EG.LocalReading.VISDAT" Mandatory="No" OrderNumber="5"/>
                <ItemRef ItemOID="IT.EG.LocalReading.EGCAT" Mandatory="No" OrderNumber="6"/>
                <ItemRef ItemOID="IT.EG.LocalReading.EGSCAT" Mandatory="No" OrderNumber="7"/>
                <ItemRef ItemOID="IT.EG.LocalReading.EGPERF" Mandatory="No" OrderNumber="8"/>
                <ItemRef ItemOID="IT.EG.LocalReading.EGMETHOD" Mandatory="No" OrderNumber="9"/>
                <ItemRef ItemOID="IT.EG.LocalReading.EGPOS" Mandatory="No" OrderNumber="10"/>
                <ItemRef ItemOID="IT.EG.LocalReading.EGDAT" Mandatory="No" OrderNumber="11"/>
                <ItemRef ItemOID="IT.EG.LocalReading.EGTPT" Mandatory="No" OrderNumber="12"/>
                <ItemRef ItemOID="IT.EG.LocalReading.EGTIM" Mandatory="No" OrderNumber="13"/>
                <ItemRef ItemOID="IT.EG.LocalReading.EGTEST" Mandatory="No" OrderNumber="14"/>
                <ItemRef ItemOID="IT.EG.LocalReading.EGORRES" Mandatory="No" OrderNumber="15"/>
                <ItemRef ItemOID="IT.EG.LocalReading.EGORRESU" Mandatory="No" OrderNumber="16"/>
                <ItemRef ItemOID="IT.EG.LocalReading.EGCLSIG" Mandatory="No" OrderNumber="17"/>
                <mdr:Class Name="FINDINGS"/>
            </ItemGroupDef>
            <ItemGroupDef Domain="Laboratory Test Findings" Name="LB.CentralProcessing"
                OID="IGD.LB.CentralProcessing" Purpose="Data Collection" Repeating="No">
                <Description>
                    <TranslatedText xml:lang="en"/>
                </Description>
                <ItemRef ItemOID="IT.LB.CentralProcessing.STUDYID" Mandatory="No" OrderNumber="1"/>
                <ItemRef ItemOID="IT.LB.CentralProcessing.SITEID" Mandatory="No" OrderNumber="2"/>
                <ItemRef ItemOID="IT.LB.CentralProcessing.SUBJID" Mandatory="No" OrderNumber="3"/>
                <ItemRef ItemOID="IT.LB.CentralProcessing.VISIT" Mandatory="No" OrderNumber="4"/>
                <ItemRef ItemOID="IT.LB.CentralProcessing.VISDAT" Mandatory="No" OrderNumber="5"/>
                <ItemRef ItemOID="IT.LB.CentralProcessing.LBPERF" Mandatory="No" OrderNumber="6"/>
                <ItemRef ItemOID="IT.LB.CentralProcessing.LBDAT" Mandatory="No" OrderNumber="7"/>
                <ItemRef ItemOID="IT.LB.CentralProcessing.LBTIM" Mandatory="No" OrderNumber="8"/>
                <ItemRef ItemOID="IT.LB.CentralProcessing.LBCAT" Mandatory="No" OrderNumber="9"/>
                <ItemRef ItemOID="IT.LB.CentralProcessing.LBSCAT" Mandatory="No" OrderNumber="10"/>
                <ItemRef ItemOID="IT.LB.CentralProcessing.LBTPT" Mandatory="No" OrderNumber="11"/>
                <ItemRef ItemOID="IT.LB.CentralProcessing.LBCOND" Mandatory="No" OrderNumber="12"/>
                <ItemRef ItemOID="IT.LB.CentralProcessing.LBFAST" Mandatory="No" OrderNumber="13"/>
                <ItemRef ItemOID="IT.LB.CentralProcessing.LBREFID" Mandatory="No" OrderNumber="14"/>
                <mdr:Class Name="FINDINGS"/>
            </ItemGroupDef>
            <ItemGroupDef Domain="Laboratory Test Findings" Name="LB.CentralProcessingCS"
                OID="IGD.LB.CentralProcessingCS" Purpose="Data Collection" Repeating="No">
                <Description>
                    <TranslatedText xml:lang="en"/>
                </Description>
                <ItemRef ItemOID="IT.LB.CentralProcessingCS.STUDYID" Mandatory="No" OrderNumber="1"/>
                <ItemRef ItemOID="IT.LB.CentralProcessingCS.SITEID" Mandatory="No" OrderNumber="2"/>
                <ItemRef ItemOID="IT.LB.CentralProcessingCS.SUBJID" Mandatory="No" OrderNumber="3"/>
                <ItemRef ItemOID="IT.LB.CentralProcessingCS.VISIT" Mandatory="No" OrderNumber="4"/>
                <ItemRef ItemOID="IT.LB.CentralProcessingCS.VISDAT" Mandatory="No" OrderNumber="5"/>
                <ItemRef ItemOID="IT.LB.CentralProcessingCS.LBPERF" Mandatory="No" OrderNumber="6"/>
                <ItemRef ItemOID="IT.LB.CentralProcessingCS.LBDAT" Mandatory="No" OrderNumber="7"/>
                <ItemRef ItemOID="IT.LB.CentralProcessingCS.LBTIM" Mandatory="No" OrderNumber="8"/>
                <ItemRef ItemOID="IT.LB.CentralProcessingCS.LBCAT" Mandatory="No" OrderNumber="9"/>
                <ItemRef ItemOID="IT.LB.CentralProcessingCS.LBSCAT" Mandatory="No" OrderNumber="10"/>
                <ItemRef ItemOID="IT.LB.CentralProcessingCS.LBTPT" Mandatory="No" OrderNumber="11"/>
                <ItemRef ItemOID="IT.LB.CentralProcessingCS.LBCOND" Mandatory="No" OrderNumber="12"/>
                <ItemRef ItemOID="IT.LB.CentralProcessingCS.LBFAST" Mandatory="No" OrderNumber="13"/>
                <ItemRef ItemOID="IT.LB.CentralProcessingCS.LBTEST" Mandatory="No" OrderNumber="14"/>
                <ItemRef ItemOID="IT.LB.CentralProcessingCS.LBORRES" Mandatory="No" OrderNumber="15"/>
                <ItemRef ItemOID="IT.LB.CentralProcessingCS.LBCLSIG" Mandatory="No" OrderNumber="16"/>
                <ItemRef ItemOID="IT.LB.CentralProcessingCS.LBREFID" Mandatory="No" OrderNumber="17"/>
                <ItemRef ItemOID="IT.LB.CentralProcessingCS.LBMETHOD" Mandatory="No"
                    OrderNumber="18"/>
                <mdr:Class Name="FINDINGS"/>
            </ItemGroupDef>
            <ItemGroupDef Domain="Laboratory Test Findings" Name="LB.LocalProcessing"
                OID="IGD.LB.LocalProcessing" Purpose="Data Collection" Repeating="No">
                <Description>
                    <TranslatedText xml:lang="en"/>
                </Description>
                <ItemRef ItemOID="IT.LB.LocalProcessing.STUDYID" Mandatory="No" OrderNumber="1"/>
                <ItemRef ItemOID="IT.LB.LocalProcessing.SITEID" Mandatory="No" OrderNumber="2"/>
                <ItemRef ItemOID="IT.LB.LocalProcessing.SUBJID" Mandatory="No" OrderNumber="3"/>
                <ItemRef ItemOID="IT.LB.LocalProcessing.VISIT" Mandatory="No" OrderNumber="4"/>
                <ItemRef ItemOID="IT.LB.LocalProcessing.VISDAT" Mandatory="No" OrderNumber="5"/>
                <ItemRef ItemOID="IT.LB.LocalProcessing.LBPERF" Mandatory="No" OrderNumber="6"/>
                <ItemRef ItemOID="IT.LB.LocalProcessing.LBDAT" Mandatory="No" OrderNumber="7"/>
                <ItemRef ItemOID="IT.LB.LocalProcessing.LBTIM" Mandatory="No" OrderNumber="8"/>
                <ItemRef ItemOID="IT.LB.LocalProcessing.LBCAT" Mandatory="No" OrderNumber="9"/>
                <ItemRef ItemOID="IT.LB.LocalProcessing.LBSCAT" Mandatory="No" OrderNumber="10"/>
                <ItemRef ItemOID="IT.LB.LocalProcessing.LBTPT" Mandatory="No" OrderNumber="11"/>
                <ItemRef ItemOID="IT.LB.LocalProcessing.LBFAST" Mandatory="No" OrderNumber="12"/>
                <ItemRef ItemOID="IT.LB.LocalProcessing.LBCOND" Mandatory="No" OrderNumber="13"/>
                <ItemRef ItemOID="IT.LB.LocalProcessing.LBSPCCND" Mandatory="No" OrderNumber="14"/>
                <ItemRef ItemOID="IT.LB.LocalProcessing.LBTEST" Mandatory="No" OrderNumber="15"/>
                <ItemRef ItemOID="IT.LB.LocalProcessing.LBORRES" Mandatory="No" OrderNumber="16"/>
                <ItemRef ItemOID="IT.LB.LocalProcessing.LBMETHOD" Mandatory="No" OrderNumber="17"/>
                <ItemRef ItemOID="IT.LB.LocalProcessing.LBORRESU" Mandatory="No" OrderNumber="18"/>
                <ItemRef ItemOID="IT.LB.LocalProcessing.LBTOXGR" Mandatory="No" OrderNumber="19"/>
                <ItemRef ItemOID="IT.LB.LocalProcessing.LBTOX" Mandatory="No" OrderNumber="20"/>
                <ItemRef ItemOID="IT.LB.LocalProcessing.LBORNRLO" Mandatory="No" OrderNumber="21"/>
                <ItemRef ItemOID="IT.LB.LocalProcessing.LBORNRHI" Mandatory="No" OrderNumber="22"/>
                <ItemRef ItemOID="IT.LB.LocalProcessing.LBNRIND" Mandatory="No" OrderNumber="23"/>
                <ItemRef ItemOID="IT.LB.LocalProcessing.LBCLSIG" Mandatory="No" OrderNumber="24"/>
                <ItemRef ItemOID="IT.LB.LocalProcessing.LBNAM" Mandatory="No" OrderNumber="25"/>
                <mdr:Class Name="FINDINGS"/>
            </ItemGroupDef>
            <ItemGroupDef Domain="Microscopic Findings" Name="MI.CentralProcessing"
                OID="IGD.MI.CentralProcessing" Purpose="Data Collection" Repeating="No">
                <Description>
                    <TranslatedText xml:lang="en"/>
                </Description>
                <ItemRef ItemOID="IT.MI.CentralProcessing.STUDYID" Mandatory="No" OrderNumber="1"/>
                <ItemRef ItemOID="IT.MI.CentralProcessing.SITEID" Mandatory="No" OrderNumber="2"/>
                <ItemRef ItemOID="IT.MI.CentralProcessing.SUBJID" Mandatory="No" OrderNumber="3"/>
                <ItemRef ItemOID="IT.MI.CentralProcessing.VISIT" Mandatory="No" OrderNumber="4"/>
                <ItemRef ItemOID="IT.MI.CentralProcessing.VISDAT" Mandatory="No" OrderNumber="5"/>
                <ItemRef ItemOID="IT.MI.CentralProcessing.MIPERF" Mandatory="No" OrderNumber="6"/>
                <ItemRef ItemOID="IT.MI.CentralProcessing.MIREFID" Mandatory="No" OrderNumber="7"/>
                <ItemRef ItemOID="IT.MI.CentralProcessing.MIDAT" Mandatory="No" OrderNumber="8"/>
                <ItemRef ItemOID="IT.MI.CentralProcessing.MITIM" Mandatory="No" OrderNumber="9"/>
                <ItemRef ItemOID="IT.MI.CentralProcessing.MICAT" Mandatory="No" OrderNumber="10"/>
                <ItemRef ItemOID="IT.MI.CentralProcessing.MISCAT" Mandatory="No" OrderNumber="11"/>
                <ItemRef ItemOID="IT.MI.CentralProcessing.MISPEC" Mandatory="No" OrderNumber="12"/>
                <ItemRef ItemOID="IT.MI.CentralProcessing.MISPCCND" Mandatory="No" OrderNumber="13"/>
                <ItemRef ItemOID="IT.MI.CentralProcessing.MILOC" Mandatory="No" OrderNumber="14"/>
                <ItemRef ItemOID="IT.MI.CentralProcessing.MILAT" Mandatory="No" OrderNumber="15"/>
                <ItemRef ItemOID="IT.MI.CentralProcessing.MIDIR" Mandatory="No" OrderNumber="16"/>
                <mdr:Class Name="FINDINGS"/>
            </ItemGroupDef>
            <ItemGroupDef Domain="Microscopic Findings" Name="MI.LocalProcessing"
                OID="IGD.MI.LocalProcessing" Purpose="Data Collection" Repeating="No">
                <Description>
                    <TranslatedText xml:lang="en"/>
                </Description>
                <ItemRef ItemOID="IT.MI.LocalProcessing.STUDYID" Mandatory="No" OrderNumber="1"/>
                <ItemRef ItemOID="IT.MI.LocalProcessing.SITEID" Mandatory="No" OrderNumber="2"/>
                <ItemRef ItemOID="IT.MI.LocalProcessing.SUBJID" Mandatory="No" OrderNumber="3"/>
                <ItemRef ItemOID="IT.MI.LocalProcessing.VISIT" Mandatory="No" OrderNumber="4"/>
                <ItemRef ItemOID="IT.MI.LocalProcessing.VISDAT" Mandatory="No" OrderNumber="5"/>
                <ItemRef ItemOID="IT.MI.LocalProcessing.MIPERF" Mandatory="No" OrderNumber="6"/>
                <ItemRef ItemOID="IT.MI.LocalProcessing.MIREFID" Mandatory="No" OrderNumber="7"/>
                <ItemRef ItemOID="IT.MI.LocalProcessing.MISPID" Mandatory="No" OrderNumber="8"/>
                <ItemRef ItemOID="IT.MI.LocalProcessing.MIDAT" Mandatory="No" OrderNumber="9"/>
                <ItemRef ItemOID="IT.MI.LocalProcessing.MITIM" Mandatory="No" OrderNumber="10"/>
                <ItemRef ItemOID="IT.MI.LocalProcessing.MICAT" Mandatory="No" OrderNumber="11"/>
                <ItemRef ItemOID="IT.MI.LocalProcessing.MISCAT" Mandatory="No" OrderNumber="12"/>
                <ItemRef ItemOID="IT.MI.LocalProcessing.MITEST" Mandatory="No" OrderNumber="13"/>
                <ItemRef ItemOID="IT.MI.LocalProcessing.MITSTDTL" Mandatory="No" OrderNumber="14"/>
                <ItemRef ItemOID="IT.MI.LocalProcessing.MIORRES" Mandatory="No" OrderNumber="15"/>
                <ItemRef ItemOID="IT.MI.LocalProcessing.MIORRESU" Mandatory="No" OrderNumber="16"/>
                <ItemRef ItemOID="IT.MI.LocalProcessing.MICLSIG" Mandatory="No" OrderNumber="17"/>
                <ItemRef ItemOID="IT.MI.LocalProcessing.MIRESCAT" Mandatory="No" OrderNumber="18"/>
                <ItemRef ItemOID="IT.MI.LocalProcessing.MINAM" Mandatory="No" OrderNumber="19"/>
                <ItemRef ItemOID="IT.MI.LocalProcessing.MISPEC" Mandatory="No" OrderNumber="20"/>
                <ItemRef ItemOID="IT.MI.LocalProcessing.MISPCCND" Mandatory="No" OrderNumber="21"/>
                <ItemRef ItemOID="IT.MI.LocalProcessing.MILOC" Mandatory="No" OrderNumber="22"/>
                <ItemRef ItemOID="IT.MI.LocalProcessing.MILAT" Mandatory="No" OrderNumber="23"/>
                <ItemRef ItemOID="IT.MI.LocalProcessing.MIDIR" Mandatory="No" OrderNumber="24"/>
                <ItemRef ItemOID="IT.MI.LocalProcessing.MIMETHOD" Mandatory="No" OrderNumber="25"/>
                <ItemRef ItemOID="IT.MI.LocalProcessing.MIEVAL" Mandatory="No" OrderNumber="26"/>
                <mdr:Class Name="FINDINGS"/>
            </ItemGroupDef>
            <ItemGroupDef Domain="Pharmacokinetics" Name="PC.FixedTimePoints"
                OID="IGD.PC.FixedTimePoints" Purpose="Data Collection" Repeating="No">
                <Description>
                    <TranslatedText xml:lang="en"/>
                </Description>
                <ItemRef ItemOID="IT.PC.FixedTimePoints.STUDYID" Mandatory="No" OrderNumber="1"/>
                <ItemRef ItemOID="IT.PC.FixedTimePoints.SITEID" Mandatory="No" OrderNumber="2"/>
                <ItemRef ItemOID="IT.PC.FixedTimePoints.SUBJID" Mandatory="No" OrderNumber="3"/>
                <ItemRef ItemOID="IT.PC.FixedTimePoints.VISIT" Mandatory="No" OrderNumber="4"/>
                <ItemRef ItemOID="IT.PC.FixedTimePoints.VISDAT" Mandatory="No" OrderNumber="5"/>
                <ItemRef ItemOID="IT.PC.FixedTimePoints.PCPERF" Mandatory="No" OrderNumber="6"/>
                <ItemRef ItemOID="IT.PC.FixedTimePoints.PCSTAT" Mandatory="No" OrderNumber="7"/>
                <ItemRef ItemOID="IT.PC.FixedTimePoints.PCREASND" Mandatory="No" OrderNumber="8"/>
                <ItemRef ItemOID="IT.PC.FixedTimePoints.PCDAT" Mandatory="No" OrderNumber="9"/>
                <ItemRef ItemOID="IT.PC.FixedTimePoints.PCDATFL" Mandatory="No" OrderNumber="10"/>
                <ItemRef ItemOID="IT.PC.FixedTimePoints.PCTIM" Mandatory="No" OrderNumber="11"/>
                <ItemRef ItemOID="IT.PC.FixedTimePoints.PCTPT" Mandatory="No" OrderNumber="12"/>
                <ItemRef ItemOID="IT.PC.FixedTimePoints.PCFAST" Mandatory="No" OrderNumber="13"/>
                <ItemRef ItemOID="IT.PC.FixedTimePoints.PCCOND" Mandatory="No" OrderNumber="14"/>
                <ItemRef ItemOID="IT.PC.FixedTimePoints.PCREFID" Mandatory="No" OrderNumber="15"/>
                <ItemRef ItemOID="IT.PC.FixedTimePoints.PCSPEC" Mandatory="No" OrderNumber="16"/>
                <ItemRef ItemOID="IT.PC.FixedTimePoints.PCTEST" Mandatory="No" OrderNumber="17"/>
                <ItemRef ItemOID="IT.PC.FixedTimePoints.PCORRES" Mandatory="No" OrderNumber="18"/>
                <ItemRef ItemOID="IT.PC.FixedTimePoints.PCORRESU" Mandatory="No" OrderNumber="19"/>
                <mdr:Class Name="FINDINGS"/>
            </ItemGroupDef>
            <ItemGroupDef Domain="Pharmacokinetics" Name="PC.TimeInterval" OID="IGD.PC.TimeInterval"
                Purpose="Data Collection" Repeating="No">
                <Description>
                    <TranslatedText xml:lang="en"/>
                </Description>
                <ItemRef ItemOID="IT.PC.TimeInterval.STUDYID" Mandatory="No" OrderNumber="1"/>
                <ItemRef ItemOID="IT.PC.TimeInterval.SITEID" Mandatory="No" OrderNumber="2"/>
                <ItemRef ItemOID="IT.PC.TimeInterval.SUBJID" Mandatory="No" OrderNumber="3"/>
                <ItemRef ItemOID="IT.PC.TimeInterval.VISIT" Mandatory="No" OrderNumber="4"/>
                <ItemRef ItemOID="IT.PC.TimeInterval.VISDAT" Mandatory="No" OrderNumber="5"/>
                <ItemRef ItemOID="IT.PC.TimeInterval.PCPERF" Mandatory="No" OrderNumber="6"/>
                <ItemRef ItemOID="IT.PC.TimeInterval.PCREASND" Mandatory="No" OrderNumber="7"/>
                <ItemRef ItemOID="IT.PC.TimeInterval.PCDAT" Mandatory="No" OrderNumber="8"/>
                <ItemRef ItemOID="IT.PC.TimeInterval.PCTIM" Mandatory="No" OrderNumber="10"/>
                <ItemRef ItemOID="IT.PC.TimeInterval.PCENDAT" Mandatory="No" OrderNumber="11"/>
                <ItemRef ItemOID="IT.PC.TimeInterval.PCENTIM" Mandatory="No" OrderNumber="13"/>
                <ItemRef ItemOID="IT.PC.TimeInterval.PCTPT" Mandatory="No" OrderNumber="14"/>
                <ItemRef ItemOID="IT.PC.TimeInterval.PCFAST" Mandatory="No" OrderNumber="15"/>
                <ItemRef ItemOID="IT.PC.TimeInterval.PCCOND" Mandatory="No" OrderNumber="16"/>
                <ItemRef ItemOID="IT.PC.TimeInterval.PCREFID" Mandatory="No" OrderNumber="17"/>
                <ItemRef ItemOID="IT.PC.TimeInterval.PCSPEC" Mandatory="No" OrderNumber="18"/>
                <ItemRef ItemOID="IT.PC.TimeInterval.PCTEST" Mandatory="No" OrderNumber="19"/>
                <ItemRef ItemOID="IT.PC.TimeInterval.PCORRES" Mandatory="No" OrderNumber="20"/>
                <ItemRef ItemOID="IT.PC.TimeInterval.PCORRESU" Mandatory="No" OrderNumber="21"/>
                <mdr:Class Name="FINDINGS"/>
            </ItemGroupDef>
            <ItemGroupDef Domain="Physical Exam" Name="PE.Traditional" OID="IGD.PE.Traditional"
                Purpose="Data Collection" Repeating="No">
                <Description>
                    <TranslatedText xml:lang="en"/>
                </Description>
                <ItemRef ItemOID="IT.PE.Traditional.STUDYID" Mandatory="No" OrderNumber="1"/>
                <ItemRef ItemOID="IT.PE.Traditional.SITEID" Mandatory="No" OrderNumber="2"/>
                <ItemRef ItemOID="IT.PE.Traditional.SUBJID" Mandatory="No" OrderNumber="3"/>
                <ItemRef ItemOID="IT.PE.Traditional.VISIT" Mandatory="No" OrderNumber="4"/>
                <ItemRef ItemOID="IT.PE.Traditional.VISDAT" Mandatory="No" OrderNumber="5"/>
                <ItemRef ItemOID="IT.PE.Traditional.PEPERF" Mandatory="No" OrderNumber="6"/>
                <ItemRef ItemOID="IT.PE.Traditional.PECAT" Mandatory="No" OrderNumber="7"/>
                <ItemRef ItemOID="IT.PE.Traditional.PESCAT" Mandatory="No" OrderNumber="8"/>
                <ItemRef ItemOID="IT.PE.Traditional.PEDAT" Mandatory="No" OrderNumber="9"/>
                <ItemRef ItemOID="IT.PE.Traditional.PETIM" Mandatory="No" OrderNumber="10"/>
                <ItemRef ItemOID="IT.PE.Traditional.PESPID" Mandatory="No" OrderNumber="11"/>
                <ItemRef ItemOID="IT.PE.Traditional.PETEST" Mandatory="No" OrderNumber="12"/>
                <ItemRef ItemOID="IT.PE.Traditional.PERES" Mandatory="No" OrderNumber="13"/>
                <ItemRef ItemOID="IT.PE.Traditional.PEDESC" Mandatory="No" OrderNumber="14"/>
                <ItemRef ItemOID="IT.PE.Traditional.PECLSIG" Mandatory="No" OrderNumber="15"/>
                <ItemRef ItemOID="IT.PE.Traditional.PEEVAL" Mandatory="No" OrderNumber="16"/>
                <ItemRef ItemOID="IT.PE.Traditional.PEREASND" Mandatory="No" OrderNumber="17"/>
                <ItemRef ItemOID="IT.PE.Traditional.PEBODSYS" Mandatory="No" OrderNumber="18"/>
                <ItemRef ItemOID="IT.PE.Traditional.PEMODIFY" Mandatory="No" OrderNumber="19"/>
                <ItemRef ItemOID="IT.PE.Traditional.PELOC" Mandatory="No" OrderNumber="20"/>
                <ItemRef ItemOID="IT.PE.Traditional.PELAT" Mandatory="No" OrderNumber="21"/>
                <ItemRef ItemOID="IT.PE.Traditional.PEDIR" Mandatory="No" OrderNumber="22"/>
                <ItemRef ItemOID="IT.PE.Traditional.PEPORTOT" Mandatory="No" OrderNumber="23"/>
                <ItemRef ItemOID="IT.PE.Traditional.PEMETHOD" Mandatory="No" OrderNumber="24"/>
                <mdr:Class Name="FINDINGS"/>
            </ItemGroupDef>
            <ItemGroupDef Domain="Subject Characteristics" Name="SC.Denormalized"
                OID="IGD.SC.Denormalized" Purpose="Data Collection" Repeating="No">
                <Description>
                    <TranslatedText xml:lang="en"/>
                </Description>
                <ItemRef ItemOID="IT.SC.STUDYID" Mandatory="No" OrderNumber="1"/>
                <ItemRef ItemOID="IT.SC.SITEID" Mandatory="No" OrderNumber="2"/>
                <ItemRef ItemOID="IT.SC.SUBJID" Mandatory="No" OrderNumber="3"/>
                <ItemRef ItemOID="IT.SC.VISIT" Mandatory="No" OrderNumber="4"/>
                <ItemRef ItemOID="IT.SC.VISDAT" Mandatory="No" OrderNumber="5"/>
                <ItemRef ItemOID="IT.SC.SCCAT" Mandatory="No" OrderNumber="6"/>
                <ItemRef ItemOID="IT.SC.SCSCAT" Mandatory="No" OrderNumber="7"/>
                <ItemRef ItemOID="IT.SC.SCPERF" Mandatory="No" OrderNumber="8"/>
                <ItemRef ItemOID="IT.SC.SCSPID" Mandatory="No" OrderNumber="9"/>
                <ItemRef ItemOID="IT.SC.SCDAT" Mandatory="No" OrderNumber="10"/>
                <ItemRef ItemOID="IT.SC.SCTEST" Mandatory="No" OrderNumber="11"/>
                <ItemRef ItemOID="IT.SC.SCORRES" Mandatory="No" OrderNumber="12"/>
                <ItemRef ItemOID="IT.SC.Denormalized.MARISTAT_SCORRES" Mandatory="No"
                    OrderNumber="13"/>
                <ItemRef ItemOID="IT.SC.Denormalized.NATORIG_SCORRES" Mandatory="No"
                    OrderNumber="14"/>
                <ItemRef ItemOID="IT.SC.Denormalized.EDLEVEL_SCORRES" Mandatory="No"
                    OrderNumber="15"/>
                <ItemRef ItemOID="IT.SC.Denormalized.SKINTYP_SCORRES" Mandatory="No"
                    OrderNumber="16"/>
                <mdr:Class Name="FINDINGS"/>
            </ItemGroupDef>
            <ItemGroupDef Domain="Subject Characteristics" Name="SC.HorizontalGeneric"
                OID="IGD.SC.HorizontalGeneric" Purpose="Data Collection" Repeating="No">
                <Description>
                    <TranslatedText xml:lang="en"/>
                </Description>
                <ItemRef ItemOID="IT.SC.STUDYID" Mandatory="No" OrderNumber="1"/>
                <ItemRef ItemOID="IT.SC.SITEID" Mandatory="No" OrderNumber="2"/>
                <ItemRef ItemOID="IT.SC.SUBJID" Mandatory="No" OrderNumber="3"/>
                <ItemRef ItemOID="IT.SC.VISIT" Mandatory="No" OrderNumber="4"/>
                <ItemRef ItemOID="IT.SC.VISDAT" Mandatory="No" OrderNumber="5"/>
                <ItemRef ItemOID="IT.SC.SCCAT" Mandatory="No" OrderNumber="6"/>
                <ItemRef ItemOID="IT.SC.SCSCAT" Mandatory="No" OrderNumber="7"/>
                <ItemRef ItemOID="IT.SC.SCPERF" Mandatory="No" OrderNumber="8"/>
                <ItemRef ItemOID="IT.SC.SCSPID" Mandatory="No" OrderNumber="9"/>
                <ItemRef ItemOID="IT.SC.SCDAT" Mandatory="No" OrderNumber="10"/>
                <ItemRef ItemOID="IT.SC.SCTEST" Mandatory="No" OrderNumber="11"/>
                <ItemRef ItemOID="IT.SC.SCORRES" Mandatory="No" OrderNumber="12"/>
                <ItemRef ItemOID="IT.SC.HorizontalGeneric.STUDYID" Mandatory="No" OrderNumber="13"/>
                <ItemRef ItemOID="IT.SC.HorizontalGeneric.SITEID" Mandatory="No" OrderNumber="14"/>
                <ItemRef ItemOID="IT.SC.HorizontalGeneric.SUBJID" Mandatory="No" OrderNumber="15"/>
                <ItemRef ItemOID="IT.SC.HorizontalGeneric.VISIT" Mandatory="No" OrderNumber="16"/>
                <ItemRef ItemOID="IT.SC.HorizontalGeneric.VISDAT" Mandatory="No" OrderNumber="17"/>
                <ItemRef ItemOID="IT.SC.HorizontalGeneric.[SCTESTCD]_SCCAT" Mandatory="No"
                    OrderNumber="18"/>
                <ItemRef ItemOID="IT.SC.HorizontalGeneric.[SCTESTCD]_SCSCAT" Mandatory="No"
                    OrderNumber="19"/>
                <ItemRef ItemOID="IT.SC.HorizontalGeneric.[SCTESTCD]_SCPERF" Mandatory="No"
                    OrderNumber="20"/>
                <ItemRef ItemOID="IT.SC.HorizontalGeneric.SCGRPID" Mandatory="No" OrderNumber="21"/>
                <ItemRef ItemOID="IT.SC.HorizontalGeneric.[SCTESTCD]_SCORRES" Mandatory="No"
                    OrderNumber="22"/>
                <mdr:Class Name="FINDINGS"/>
            </ItemGroupDef>
            <ItemGroupDef Domain="Skin Response Findings" Name="SR.Denormalized"
                OID="IGD.SR.Denormalized" Purpose="Data Collection" Repeating="No">
                <Description>
                    <TranslatedText xml:lang="en"/>
                </Description>
                <ItemRef ItemOID="IT.SR.STUDYID" Mandatory="No" OrderNumber="1"/>
                <ItemRef ItemOID="IT.SR.SITEID" Mandatory="No" OrderNumber="2"/>
                <ItemRef ItemOID="IT.SR.SUBJID" Mandatory="No" OrderNumber="3"/>
                <ItemRef ItemOID="IT.SR.VISIT" Mandatory="No" OrderNumber="4"/>
                <ItemRef ItemOID="IT.SR.VISDAT" Mandatory="No" OrderNumber="5"/>
                <ItemRef ItemOID="IT.SR.SRPERF" Mandatory="No" OrderNumber="6"/>
                <ItemRef ItemOID="IT.SR.SRREASND" Mandatory="No" OrderNumber="7"/>
                <ItemRef ItemOID="IT.SR.SRCAT" Mandatory="No" OrderNumber="8"/>
                <ItemRef ItemOID="IT.SR.SRSCAT" Mandatory="No" OrderNumber="8"/>
                <ItemRef ItemOID="IT.SR.SRSPID" Mandatory="No" OrderNumber="9"/>
                <ItemRef ItemOID="IT.SR.SROBJ" Mandatory="No" OrderNumber="10"/>
                <ItemRef ItemOID="IT.SR.SRRFTDAT" Mandatory="No" OrderNumber="11"/>
                <ItemRef ItemOID="IT.SR.SRRFTTIM" Mandatory="No" OrderNumber="12"/>
                <ItemRef ItemOID="IT.SR.SRLOC" Mandatory="No" OrderNumber="13"/>
                <ItemRef ItemOID="IT.SR.SRLAT" Mandatory="No" OrderNumber="14"/>
                <ItemRef ItemOID="IT.SR.SRTEST" Mandatory="No" OrderNumber="15"/>
                <ItemRef ItemOID="IT.SR.SRTPT" Mandatory="No" OrderNumber="16"/>
                <ItemRef ItemOID="IT.SR.SRDAT" Mandatory="No" OrderNumber="17"/>
                <ItemRef ItemOID="IT.SR.SRTIM" Mandatory="No" OrderNumber="18"/>
                <ItemRef ItemOID="IT.SR.SRDIR" Mandatory="No" OrderNumber="19"/>
                <ItemRef ItemOID="IT.SR.SREVAL" Mandatory="No" OrderNumber="20"/>
                <ItemRef ItemOID="IT.SR.SREVALID" Mandatory="No" OrderNumber="21"/>
                <ItemRef ItemOID="IT.SR.SRORRES" Mandatory="No" OrderNumber="22"/>
                <ItemRef ItemOID="IT.SR.SRORRESU" Mandatory="No" OrderNumber="23"/>
                <ItemRef ItemOID="IT.SR.SRNRIND" Mandatory="No" OrderNumber="24"/>
                <ItemRef ItemOID="IT.SR.SRCLSIG" Mandatory="No" OrderNumber="25"/>
                <ItemRef ItemOID="IT.SR.Denormalized.FLARESZ_SRORRES" Mandatory="No"
                    OrderNumber="27"/>
                <ItemRef ItemOID="IT.SR.Denormalized.FLARESZ_SRORRESU" Mandatory="No"
                    OrderNumber="28"/>
                <ItemRef ItemOID="IT.SR.Denormalized.FLRLDIAM_SRORRES" Mandatory="No"
                    OrderNumber="29"/>
                <ItemRef ItemOID="IT.SR.Denormalized.FLRLDIM_SRORRESU" Mandatory="No"
                    OrderNumber="30"/>
                <ItemRef ItemOID="IT.SR.Denormalized.FLRMDIAM_SRORRES" Mandatory="No"
                    OrderNumber="31"/>
                <ItemRef ItemOID="IT.SR.Denormalized.FLRMDIM_SRORRESU" Mandatory="No"
                    OrderNumber="32"/>
                <ItemRef ItemOID="IT.SR.Denormalized.IDRLDIAM_SRORRES" Mandatory="No"
                    OrderNumber="33"/>
                <ItemRef ItemOID="IT.SR.Denormalized.IDRLDIAM_SRORRESU" Mandatory="No"
                    OrderNumber="34"/>
                <ItemRef ItemOID="IT.SR.Denormalized.WHEALSZ_SRORRES" Mandatory="No"
                    OrderNumber="35"/>
                <ItemRef ItemOID="IT.SR.Denormalized.WHEALSZ_SRORRESU" Mandatory="No"
                    OrderNumber="36"/>
                <ItemRef ItemOID="IT.SR.Denormalized.WHLLDIAM_SRORRES" Mandatory="No"
                    OrderNumber="37"/>
                <ItemRef ItemOID="IT.SR.Denormalized.WHLLDIM_SRORRESU" Mandatory="No"
                    OrderNumber="38"/>
                <ItemRef ItemOID="IT.SR.Denormalized.WHLMDIAM_SRORRES" Mandatory="No"
                    OrderNumber="39"/>
                <ItemRef ItemOID="IT.SR.Denormalized.WHLMDIM_SRORRESU" Mandatory="No"
                    OrderNumber="40"/>
                <mdr:Class Name="FINDINGS"/>
            </ItemGroupDef>
            <ItemGroupDef Domain="Skin Response Findings" Name="SR.HorizontalGeneric"
                OID="IGD.SR.HorizontalGeneric" Purpose="Data Collection" Repeating="No">
                <Description>
                    <TranslatedText xml:lang="en"/>
                </Description>
                <ItemRef ItemOID="IT.SR.STUDYID" Mandatory="No" OrderNumber="1"/>
                <ItemRef ItemOID="IT.SR.SITEID" Mandatory="No" OrderNumber="2"/>
                <ItemRef ItemOID="IT.SR.SUBJID" Mandatory="No" OrderNumber="3"/>
                <ItemRef ItemOID="IT.SR.VISIT" Mandatory="No" OrderNumber="4"/>
                <ItemRef ItemOID="IT.SR.VISDAT" Mandatory="No" OrderNumber="5"/>
                <ItemRef ItemOID="IT.SR.SRPERF" Mandatory="No" OrderNumber="6"/>
                <ItemRef ItemOID="IT.SR.SRREASND" Mandatory="No" OrderNumber="7"/>
                <ItemRef ItemOID="IT.SR.SRCAT" Mandatory="No" OrderNumber="8"/>
                <ItemRef ItemOID="IT.SR.SRSCAT" Mandatory="No" OrderNumber="8"/>
                <ItemRef ItemOID="IT.SR.SRSPID" Mandatory="No" OrderNumber="9"/>
                <ItemRef ItemOID="IT.SR.SROBJ" Mandatory="No" OrderNumber="10"/>
                <ItemRef ItemOID="IT.SR.SRRFTDAT" Mandatory="No" OrderNumber="11"/>
                <ItemRef ItemOID="IT.SR.SRRFTTIM" Mandatory="No" OrderNumber="12"/>
                <ItemRef ItemOID="IT.SR.SRLOC" Mandatory="No" OrderNumber="13"/>
                <ItemRef ItemOID="IT.SR.SRLAT" Mandatory="No" OrderNumber="14"/>
                <ItemRef ItemOID="IT.SR.SRTEST" Mandatory="No" OrderNumber="15"/>
                <ItemRef ItemOID="IT.SR.SRTPT" Mandatory="No" OrderNumber="16"/>
                <ItemRef ItemOID="IT.SR.SRDAT" Mandatory="No" OrderNumber="17"/>
                <ItemRef ItemOID="IT.SR.SRTIM" Mandatory="No" OrderNumber="18"/>
                <ItemRef ItemOID="IT.SR.SRDIR" Mandatory="No" OrderNumber="19"/>
                <ItemRef ItemOID="IT.SR.SREVAL" Mandatory="No" OrderNumber="20"/>
                <ItemRef ItemOID="IT.SR.SREVALID" Mandatory="No" OrderNumber="21"/>
                <ItemRef ItemOID="IT.SR.SRORRES" Mandatory="No" OrderNumber="22"/>
                <ItemRef ItemOID="IT.SR.SRORRESU" Mandatory="No" OrderNumber="23"/>
                <ItemRef ItemOID="IT.SR.SRNRIND" Mandatory="No" OrderNumber="24"/>
                <ItemRef ItemOID="IT.SR.SRCLSIG" Mandatory="No" OrderNumber="25"/>
                <ItemRef ItemOID="IT.SR.HorizontalGeneric.STUDYID" Mandatory="No" OrderNumber="27"/>
                <ItemRef ItemOID="IT.SR.HorizontalGeneric.SITEID" Mandatory="No" OrderNumber="28"/>
                <ItemRef ItemOID="IT.SR.HorizontalGeneric.SUBJID" Mandatory="No" OrderNumber="29"/>
                <ItemRef ItemOID="IT.SR.HorizontalGeneric.VISIT" Mandatory="No" OrderNumber="30"/>
                <ItemRef ItemOID="IT.SR.HorizontalGeneric.VISDAT" Mandatory="No" OrderNumber="31"/>
                <ItemRef ItemOID="IT.SR.HorizontalGeneric.[SRTESTCD]_SRPERF" Mandatory="No"
                    OrderNumber="32"/>
                <ItemRef ItemOID="IT.SR.HorizontalGeneric.[SRTESTCD]_SRREASND" Mandatory="No"
                    OrderNumber="33"/>
                <ItemRef ItemOID="IT.SR.HorizontalGeneric.SRGRPID" Mandatory="No" OrderNumber="34"/>
                <ItemRef ItemOID="IT.SR.HorizontalGeneric.SRCAT" Mandatory="No" OrderNumber="35"/>
                <ItemRef ItemOID="IT.SR.HorizontalGeneric.[SRTESTCD]_SROBJ" Mandatory="No"
                    OrderNumber="36"/>
                <ItemRef ItemOID="IT.SR.HorizontalGeneric.[SRTESTCD]_SRRFTDAT" Mandatory="No"
                    OrderNumber="37"/>
                <ItemRef ItemOID="IT.SR.HorizontalGeneric.[SRTESTCD]_SRRFTTIM" Mandatory="No"
                    OrderNumber="38"/>
                <ItemRef ItemOID="IT.SR.HorizontalGeneric.[SRTESTCD]_SRLOC" Mandatory="No"
                    OrderNumber="39"/>
                <ItemRef ItemOID="IT.SR.HorizontalGeneric.[SRTESTCD]_SRLAT" Mandatory="No"
                    OrderNumber="40"/>
                <ItemRef ItemOID="IT.SR.HorizontalGeneric.[SRTESTCD]_SRTPT" Mandatory="No"
                    OrderNumber="41"/>
                <ItemRef ItemOID="IT.SR.HorizontalGeneric.[SRTESTCD]_SRDAT" Mandatory="No"
                    OrderNumber="42"/>
                <ItemRef ItemOID="IT.SR.HorizontalGeneric.[SRTESTCD]_SRTIM" Mandatory="No"
                    OrderNumber="43"/>
                <ItemRef ItemOID="IT.SR.HorizontalGeneric.[SRTESTCD]_SRDIR" Mandatory="No"
                    OrderNumber="44"/>
                <ItemRef ItemOID="IT.SR.HorizontalGeneric.[SRTESTCD]_SREVAL" Mandatory="No"
                    OrderNumber="45"/>
                <ItemRef ItemOID="IT.SR.HorizontalGeneric.[SRTESTCD]_SREVALID" Mandatory="No"
                    OrderNumber="46"/>
                <ItemRef ItemOID="IT.SR.HorizontalGeneric.[SRTESTCD]_SRORRES" Mandatory="No"
                    OrderNumber="47"/>
                <ItemRef ItemOID="IT.SR.HorizontalGeneric.SRORRESU" Mandatory="No" OrderNumber="48"/>
                <ItemRef ItemOID="IT.SR.HorizontalGeneric.[SRTESTCD]_SRNRIND" Mandatory="No"
                    OrderNumber="49"/>
                <ItemRef ItemOID="IT.SR.HorizontalGeneric.[SRTESTCD]_SRCLSIG" Mandatory="No"
                    OrderNumber="50"/>
                <mdr:Class Name="FINDINGS"/>
            </ItemGroupDef>
            <ItemGroupDef Domain="Vital Signs" Name="VS.Denormalized" OID="IGD.VS.Denormalized"
                Purpose="Data Collection" Repeating="No">
                <Description>
                    <TranslatedText xml:lang="en"/>
                </Description>
                <ItemRef ItemOID="IT.VS.STUDYID" Mandatory="No" OrderNumber="1"/>
                <ItemRef ItemOID="IT.VS.SITEID" Mandatory="No" OrderNumber="2"/>
                <ItemRef ItemOID="IT.VS.SUBJID" Mandatory="No" OrderNumber="3"/>
                <ItemRef ItemOID="IT.VS.VISIT" Mandatory="No" OrderNumber="4"/>
                <ItemRef ItemOID="IT.VS.VISDAT" Mandatory="No" OrderNumber="5"/>
                <ItemRef ItemOID="IT.VS.VSPERF" Mandatory="No" OrderNumber="6"/>
                <ItemRef ItemOID="IT.VS.VSDAT" Mandatory="No" OrderNumber="7"/>
                <ItemRef ItemOID="IT.VS.VSTIM" Mandatory="No" OrderNumber="8"/>
                <ItemRef ItemOID="IT.VS.VSSPID" Mandatory="No" OrderNumber="9"/>
                <ItemRef ItemOID="IT.VS.VSTPT" Mandatory="No" OrderNumber="10"/>
                <ItemRef ItemOID="IT.VS.VSCAT" Mandatory="No" OrderNumber="11"/>
                <ItemRef ItemOID="IT.VS.VSSCAT" Mandatory="No" OrderNumber="12"/>
                <ItemRef ItemOID="IT.VS.VSREPNUM" Mandatory="No" OrderNumber="13"/>
                <ItemRef ItemOID="IT.VS.VSTEST" Mandatory="No" OrderNumber="14"/>
                <ItemRef ItemOID="IT.VS.VSSTAT" Mandatory="No" OrderNumber="15"/>
                <ItemRef ItemOID="IT.VS.VSORRES" Mandatory="No" OrderNumber="16"/>
                <ItemRef ItemOID="IT.VS.VSORRESU" Mandatory="No" OrderNumber="17"/>
                <ItemRef ItemOID="IT.VS.VSCLSIG" Mandatory="No" OrderNumber="18"/>
                <ItemRef ItemOID="IT.VS.VSLOC" Mandatory="No" OrderNumber="19"/>
                <ItemRef ItemOID="IT.VS.VSPOS" Mandatory="No" OrderNumber="20"/>
                <ItemRef ItemOID="IT.VS.VSDIR" Mandatory="No" OrderNumber="21"/>
                <ItemRef ItemOID="IT.VS.VSLAT" Mandatory="No" OrderNumber="22"/>
                <ItemRef ItemOID="IT.VS.Denormalized.TEMP_VSORRES" Mandatory="No" OrderNumber="23"/>
                <ItemRef ItemOID="IT.VS.Denormalized.TEMP_VSORRESU" Mandatory="No" OrderNumber="24"/>
                <ItemRef ItemOID="IT.VS.Denormalized.TEMP_VSCLSIG" Mandatory="No" OrderNumber="25"/>
                <ItemRef ItemOID="IT.VS.Denormalized.RESP_VSORRES" Mandatory="No" OrderNumber="26"/>
                <ItemRef ItemOID="IT.VS.Denormalized.RESP_VSORRESU" Mandatory="No" OrderNumber="27"/>
                <ItemRef ItemOID="IT.VS.Denormalized.RESP_VSCLSIG" Mandatory="No" OrderNumber="28"/>
                <ItemRef ItemOID="IT.VS.Denormalized.SYSBP_VSORRES" Mandatory="No" OrderNumber="29"/>
                <ItemRef ItemOID="IT.VS.Denormalized.SYSBP_VSORRESU" Mandatory="No" OrderNumber="30"/>
                <ItemRef ItemOID="IT.VS.Denormalized.SYSBP_VSCLSIG" Mandatory="No" OrderNumber="31"/>
                <ItemRef ItemOID="IT.VS.Denormalized.SYSBP_VSPOS" Mandatory="No" OrderNumber="32"/>
                <ItemRef ItemOID="IT.VS.Denormalized.SYSBP_VSLOC" Mandatory="No" OrderNumber="33"/>
                <ItemRef ItemOID="IT.VS.Denormalized.SYSBP_VSLAT" Mandatory="No" OrderNumber="34"/>
                <ItemRef ItemOID="IT.VS.Denormalized.DIABP_VSORRES" Mandatory="No" OrderNumber="35"/>
                <ItemRef ItemOID="IT.VS.Denormalized.DIAPU_VSORRESU" Mandatory="No" OrderNumber="36"/>
                <ItemRef ItemOID="IT.VS.Denormalized.DIABP_VSCLSIG" Mandatory="No" OrderNumber="37"/>
                <ItemRef ItemOID="IT.VS.Denormalized.DIABP_VSPOS" Mandatory="No" OrderNumber="38"/>
                <ItemRef ItemOID="IT.VS.Denormalized.DIABP_VSLOC" Mandatory="No" OrderNumber="39"/>
                <ItemRef ItemOID="IT.VS.Denormalized.DIABP_VSLAT" Mandatory="No" OrderNumber="40"/>
                <ItemRef ItemOID="IT.VS.Denormalized.HR_VSORRES" Mandatory="No" OrderNumber="41"/>
                <ItemRef ItemOID="IT.VS.Denormalized.HR_VSORRESU" Mandatory="No" OrderNumber="42"/>
                <ItemRef ItemOID="IT.VS.Denormalized.HR_VSCLSIG" Mandatory="No" OrderNumber="43"/>
                <ItemRef ItemOID="IT.VS.Denormalized.HR_VSPOS" Mandatory="No" OrderNumber="44"/>
                <ItemRef ItemOID="IT.VS.Denormalized.HR_VSLOC" Mandatory="No" OrderNumber="45"/>
                <ItemRef ItemOID="IT.VS.Denormalized.HR_VSLAT" Mandatory="No" OrderNumber="46"/>
                <mdr:Class Name="FINDINGS"/>
            </ItemGroupDef>
            <ItemGroupDef Domain="Vital Signs" Name="VS.HorizontalGeneric"
                OID="IGD.VS.HorizontalGeneric" Purpose="Data Collection" Repeating="No">
                <Description>
                    <TranslatedText xml:lang="en"/>
                </Description>
                <ItemRef ItemOID="IT.VS.STUDYID" Mandatory="No" OrderNumber="1"/>
                <ItemRef ItemOID="IT.VS.SITEID" Mandatory="No" OrderNumber="2"/>
                <ItemRef ItemOID="IT.VS.SUBJID" Mandatory="No" OrderNumber="3"/>
                <ItemRef ItemOID="IT.VS.VISIT" Mandatory="No" OrderNumber="4"/>
                <ItemRef ItemOID="IT.VS.VISDAT" Mandatory="No" OrderNumber="5"/>
                <ItemRef ItemOID="IT.VS.VSPERF" Mandatory="No" OrderNumber="6"/>
                <ItemRef ItemOID="IT.VS.VSDAT" Mandatory="No" OrderNumber="7"/>
                <ItemRef ItemOID="IT.VS.VSTIM" Mandatory="No" OrderNumber="8"/>
                <ItemRef ItemOID="IT.VS.VSSPID" Mandatory="No" OrderNumber="9"/>
                <ItemRef ItemOID="IT.VS.VSTPT" Mandatory="No" OrderNumber="10"/>
                <ItemRef ItemOID="IT.VS.VSCAT" Mandatory="No" OrderNumber="11"/>
                <ItemRef ItemOID="IT.VS.VSSCAT" Mandatory="No" OrderNumber="12"/>
                <ItemRef ItemOID="IT.VS.VSREPNUM" Mandatory="No" OrderNumber="13"/>
                <ItemRef ItemOID="IT.VS.VSTEST" Mandatory="No" OrderNumber="14"/>
                <ItemRef ItemOID="IT.VS.VSSTAT" Mandatory="No" OrderNumber="15"/>
                <ItemRef ItemOID="IT.VS.VSORRES" Mandatory="No" OrderNumber="16"/>
                <ItemRef ItemOID="IT.VS.VSORRESU" Mandatory="No" OrderNumber="17"/>
                <ItemRef ItemOID="IT.VS.VSCLSIG" Mandatory="No" OrderNumber="18"/>
                <ItemRef ItemOID="IT.VS.VSLOC" Mandatory="No" OrderNumber="19"/>
                <ItemRef ItemOID="IT.VS.VSPOS" Mandatory="No" OrderNumber="20"/>
                <ItemRef ItemOID="IT.VS.VSDIR" Mandatory="No" OrderNumber="21"/>
                <ItemRef ItemOID="IT.VS.VSLAT" Mandatory="No" OrderNumber="22"/>
                <ItemRef ItemOID="IT.VS.HorizontalGeneric.STUDYID" Mandatory="No" OrderNumber="23"/>
                <ItemRef ItemOID="IT.VS.HorizontalGeneric.SITEID" Mandatory="No" OrderNumber="24"/>
                <ItemRef ItemOID="IT.VS.HorizontalGeneric.SUBJID" Mandatory="No" OrderNumber="25"/>
                <ItemRef ItemOID="IT.VS.HorizontalGeneric.VISIT" Mandatory="No" OrderNumber="26"/>
                <ItemRef ItemOID="IT.VS.HorizontalGeneric.VISDAT" Mandatory="No" OrderNumber="27"/>
                <ItemRef ItemOID="IT.VS.HorizontalGeneric.[VSTESTCD]_VSPERF" Mandatory="No"
                    OrderNumber="28"/>
                <ItemRef ItemOID="IT.VS.HorizontalGeneric.[VSTESTCD]_VSDAT" Mandatory="No"
                    OrderNumber="29"/>
                <ItemRef ItemOID="IT.VS.HorizontalGeneric.[VSTESTCD]_VSTIM" Mandatory="No"
                    OrderNumber="30"/>
                <ItemRef ItemOID="IT.VS.HorizontalGeneric.VSCAT" Mandatory="No" OrderNumber="31"/>
                <ItemRef ItemOID="IT.VS.HorizontalGeneric.VSSCAT" Mandatory="No" OrderNumber="32"/>
                <ItemRef ItemOID="IT.VS.HorizontalGeneric.VSGRPID" Mandatory="No" OrderNumber="33"/>
                <ItemRef ItemOID="IT.VS.HorizontalGeneric.[VSTESTCD]_VSTPT" Mandatory="No"
                    OrderNumber="34"/>
                <ItemRef ItemOID="IT.VS.HorizontalGeneric.[VSTESTCD]_VSSTAT" Mandatory="No"
                    OrderNumber="35"/>
                <ItemRef ItemOID="IT.VS.HorizontalGeneric.[VSTESTCD]_VSORRES" Mandatory="No"
                    OrderNumber="36"/>
                <ItemRef ItemOID="IT.VS.HorizontalGeneric.[VSTESTCD]_VSORRESU" Mandatory="No"
                    OrderNumber="37"/>
                <ItemRef ItemOID="IT.VS.HorizontalGeneric.[VSTESTCD]_VSCLSIG" Mandatory="No"
                    OrderNumber="38"/>
                <ItemRef ItemOID="IT.VS.HorizontalGeneric.[VSTESTCD]_VSPOS" Mandatory="No"
                    OrderNumber="39"/>
                <ItemRef ItemOID="IT.VS.HorizontalGeneric.[VSTESTCD]_VSLOC" Mandatory="No"
                    OrderNumber="40"/>
                <ItemRef ItemOID="IT.VS.HorizontalGeneric.[VSTESTCD]_VSLAT" Mandatory="No"
                    OrderNumber="41"/>
                <mdr:Class Name="FINDINGS"/>
            </ItemGroupDef>
            <ItemDef DataType="text" Name="STUDYID" OID="IT.CM.STUDYID" mdr:Core="HR"
                mdr:SubmissionDataType="Char">
                <Description>
                    <TranslatedText xml:lang="en">Study Identifier</TranslatedText>
                </Description>
                <Question>
                    <TranslatedText xml:lang="en">What is the study identifier?</TranslatedText>
                </Question>
                <Alias Context="sdtmigDatasetMappingTarget_0" Name="CM.STUDYID"/>
                <mdr:Prompt>
                    <TranslatedText xml:lang="en">[Protocol/Study]</TranslatedText>
                </mdr:Prompt>
                <mdr:ImplementationNotes>
                    <TranslatedText xml:lang="en">While this field is not typically captured on a
                        CRF, it should be displayed clearly on the CRF and/or the EDC system. This
                        field can be included into the database or populated during SDTM-based
                        dataset creation before submission.</TranslatedText>
                </mdr:ImplementationNotes>
                <mdr:MappingInstructions>
                    <TranslatedText xml:lang="en">Maps directly to the SDTMIG variable listed in the
                        column with the heading "SDTMIG Target".</TranslatedText>
                </mdr:MappingInstructions>
                <mdr:Definition>
                    <TranslatedText xml:lang="en">A unique identifier for a study.</TranslatedText>
                </mdr:Definition>
            </ItemDef>
            <ItemDef DataType="text" Name="SITEID" OID="IT.CM.SITEID" mdr:Core="HR"
                mdr:SubmissionDataType="Char">
                <Description>
                    <TranslatedText xml:lang="en">Study Site Identifier</TranslatedText>
                </Description>
                <Question>
                    <TranslatedText xml:lang="en">What is the site identifier?</TranslatedText>
                </Question>
                <Alias Context="sdtmigDatasetMappingTarget_0" Name="DM.SITEID"/>
                <mdr:Prompt>
                    <TranslatedText xml:lang="en">Site (Identifier)</TranslatedText>
                </mdr:Prompt>
                <mdr:ImplementationNotes>
                    <TranslatedText xml:lang="en">Paper: This is typically preprinted in the header
                        of each CRF page for single site studies. For studies with multiple sites,
                        this field may be left blank so that the number can be recorded by the site,
                        or it may be preprinted for the CRFs that are shipped to each site. EDC:
                        This should be prepopulated.</TranslatedText>
                </mdr:ImplementationNotes>
                <mdr:MappingInstructions>
                    <TranslatedText xml:lang="en">Maps directly to the SDTMIG variable listed in the
                        column with the heading "SDTMIG Target".</TranslatedText>
                </mdr:MappingInstructions>
                <mdr:Definition>
                    <TranslatedText xml:lang="en">A unique identifier for a site within a
                        study.</TranslatedText>
                </mdr:Definition>
            </ItemDef>
            <ItemDef DataType="text" Name="SUBJID" OID="IT.CM.SUBJID" mdr:Core="HR"
                mdr:SubmissionDataType="Char">
                <Description>
                    <TranslatedText xml:lang="en">Subject Identifier for the Study</TranslatedText>
                </Description>
                <Question>
                    <TranslatedText xml:lang="en">What is the subject identifier?</TranslatedText>
                </Question>
                <Alias Context="sdtmigDatasetMappingTarget_0" Name="DM.SUBJID"/>
                <mdr:Prompt>
                    <TranslatedText xml:lang="en">Subject</TranslatedText>
                </mdr:Prompt>
                <mdr:CRFCompletionInstructions>
                    <TranslatedText xml:lang="en">Record the identifier for the
                        subject.</TranslatedText>
                </mdr:CRFCompletionInstructions>
                <mdr:ImplementationNotes>
                    <TranslatedText xml:lang="en">Paper: This is typically recorded in the header of
                        each CRF page. EDC: The subject identifiers may be provided to the site
                        using a pre-populated list in the system. This CDASH variable is typically
                        collected in all CDASH domains. However, this CDASH variable is populated
                        only in the SDTMIG DM domain. For more information, refer to Study Data
                        Tabulation Model.</TranslatedText>
                </mdr:ImplementationNotes>
                <mdr:MappingInstructions>
                    <TranslatedText xml:lang="en">Maps directly to the SDTMIG variable listed in the
                        column with the heading "SDTMIG Target".</TranslatedText>
                </mdr:MappingInstructions>
                <mdr:Definition>
                    <TranslatedText xml:lang="en">A unique subject identifier within a site and a
                        study.</TranslatedText>
                </mdr:Definition>
            </ItemDef>
            <ItemDef DataType="text" Name="CMCAT" OID="IT.CM.CMCAT" mdr:Core="O"
                mdr:SubmissionDataType="Char">
                <Description>
                    <TranslatedText xml:lang="en">Category for Concomitant
                        Medication</TranslatedText>
                </Description>
                <Question>
                    <TranslatedText xml:lang="en">What is the category for the (concomitant)
                        [medication/treatment/therapy]?</TranslatedText>
                </Question>
                <Alias Context="sdtmigDatasetMappingTarget_0" Name="CM.CMCAT"/>
                <mdr:Prompt>
                    <TranslatedText xml:lang="en">(Concomitant) [Medication/Treatment/Therapy
                        Category]; NULL</TranslatedText>
                </mdr:Prompt>
                <mdr:CRFCompletionInstructions>
                    <TranslatedText xml:lang="en">Record the (concomitant)
                        [medication/treatment/therapy] category, if not pre-printed on the
                        CRF.</TranslatedText>
                </mdr:CRFCompletionInstructions>
                <mdr:ImplementationNotes>
                    <TranslatedText xml:lang="en">Sponsor-defined Controlled Terminology. This would
                        most commonly be either a heading, or a pre-printed category value on the
                        CRF and not a question to which the site would provide an answer. If a
                        question is asked, the response would typically be a sponsor-defined
                        codelist. If the form is laid out as a grid, then words such as "Category"
                        can be included as the column header.</TranslatedText>
                </mdr:ImplementationNotes>
                <mdr:MappingInstructions>
                    <TranslatedText xml:lang="en">Maps directly to the SDTMIG variable listed in the
                        column with the heading "SDTMIG Target".</TranslatedText>
                </mdr:MappingInstructions>
                <mdr:Definition>
                    <TranslatedText xml:lang="en">A grouping of topic-variable values based on user
                        defined characteristics.</TranslatedText>
                </mdr:Definition>
            </ItemDef>
            <ItemDef DataType="text" Name="CMSCAT" OID="IT.CM.CMSCAT" mdr:Core="O"
                mdr:SubmissionDataType="Char">
                <Description>
                    <TranslatedText xml:lang="en">Subcategory for Concomitant
                        Medication</TranslatedText>
                </Description>
                <Question>
                    <TranslatedText xml:lang="en">What is the subcategory for the (concomitant)
                        [medication/treatment/therapy]?</TranslatedText>
                </Question>
                <Alias Context="sdtmigDatasetMappingTarget_0" Name="CM.CMSCAT"/>
                <mdr:Prompt>
                    <TranslatedText xml:lang="en">(Concomitant) [Medication/Treatment/Therapy
                        subcategory]; NULL</TranslatedText>
                </mdr:Prompt>
                <mdr:CRFCompletionInstructions>
                    <TranslatedText xml:lang="en">Record (concomitant)
                        [medication/treatment/therapy] subcategory, if not pre-printed on the
                        CRF.</TranslatedText>
                </mdr:CRFCompletionInstructions>
                <mdr:ImplementationNotes>
                    <TranslatedText xml:lang="en">Sponsor-defined Controlled Terminology. This would
                        most commonly be pre-printed on the CRF or screen and pre-populated in the
                        data management system. This is not typically a question to which the site
                        would provide an answer.</TranslatedText>
                </mdr:ImplementationNotes>
                <mdr:MappingInstructions>
                    <TranslatedText xml:lang="en">Maps directly to the SDTMIG variable listed in the
                        column with the heading "SDTMIG Target".</TranslatedText>
                </mdr:MappingInstructions>
                <mdr:Definition>
                    <TranslatedText xml:lang="en">A sub-division of the CMCAT values based on user
                        defined characteristics.</TranslatedText>
                </mdr:Definition>
            </ItemDef>
            <ItemDef DataType="text" Name="CMYN" OID="IT.CM.CMYN" mdr:Core="O"
                mdr:SubmissionDataType="Char">
                <Description>
                    <TranslatedText xml:lang="en">Any Concomitant Medications Taken</TranslatedText>
                </Description>
                <Question>
                    <TranslatedText xml:lang="en">Were any (concomitant)
                        [medication(s)/treatment(s)/therap(ies)] taken?</TranslatedText>
                </Question>
                <CodeListRef CodeListOID="CL.C66742"/>
                <mdr:Prompt>
                    <TranslatedText xml:lang="en">Any (Concomitant)
                        [Medication(s)/Treatment(s)/Therap(ies)]</TranslatedText>
                </mdr:Prompt>
                <mdr:CRFCompletionInstructions>
                    <TranslatedText xml:lang="en">Indicate if the subject took any (concomitant)
                        [medications/treatments]. If Yes, include the appropriate details where
                        indicated on the CRF.</TranslatedText>
                </mdr:CRFCompletionInstructions>
                <mdr:ImplementationNotes>
                    <TranslatedText xml:lang="en">The intent/purpose of collecting this field is to
                        help with data cleaning and monitoring. It provides verification that all
                        other fields on the CRF were deliberately left blank.</TranslatedText>
                </mdr:ImplementationNotes>
                <mdr:MappingInstructions>
                    <TranslatedText xml:lang="en">Does not map to an SDTMIG variable. The SDTM
                        Annotated CRF is annotated to indicate that this field is NOT
                        SUBMITTED.</TranslatedText>
                </mdr:MappingInstructions>
                <mdr:Definition>
                    <TranslatedText xml:lang="en">An indication whether or not any (concomitant)
                        medications/treatments/therapies were taken/given.</TranslatedText>
                </mdr:Definition>
            </ItemDef>
            <ItemDef DataType="text" Name="CMSPID" OID="IT.CM.CMSPID" mdr:Core="O"
                mdr:SubmissionDataType="Char">
                <Description>
                    <TranslatedText xml:lang="en">Concomitant Meds Sponsor-Defined
                        Identifier</TranslatedText>
                </Description>
                <Question>
                    <TranslatedText xml:lang="en">What is the (concomitant)
                        [medication/treatment/therapy] identifier?</TranslatedText>
                </Question>
                <Alias Context="sdtmigDatasetMappingTarget_0" Name="CM.CMSPID"/>
                <mdr:Prompt>
                    <TranslatedText xml:lang="en">[Line Number/CM Number]</TranslatedText>
                </mdr:Prompt>
                <mdr:CRFCompletionInstructions>
                    <TranslatedText xml:lang="en">If collected on the CRF, sponsor may insert
                        instructions to ensure each record has a unique identifier.</TranslatedText>
                </mdr:CRFCompletionInstructions>
                <mdr:ImplementationNotes>
                    <TranslatedText xml:lang="en">Since SPID is a sponsor-defined identifier,
                        conformance to Question Text or Item Prompt is not applicable. Typically
                        used as an identifier in a data query to communicate clearly to the site the
                        specific record in question or to reconcile concomitant medication/treatment
                        records with AEs and/or Medical History. May be used to record pre-printed
                        number (e.g. line number, record number) on the CRF. This field may be
                        populated by the sponsor's data collection system.</TranslatedText>
                </mdr:ImplementationNotes>
                <mdr:MappingInstructions>
                    <TranslatedText xml:lang="en">Maps directly to the SDTMIG variable listed in the
                        column with the heading "SDTMIG Target". May be used to create RELREC to
                        link this record with a record in another domain.</TranslatedText>
                </mdr:MappingInstructions>
                <mdr:Definition>
                    <TranslatedText xml:lang="en">A sponsor-defined identifier which can be used for
                        pre-printed or auto-generated numbers on the CRF.</TranslatedText>
                </mdr:Definition>
            </ItemDef>
            <ItemDef DataType="text" Name="CMTRT" OID="IT.CM.CMTRT" mdr:Core="HR"
                mdr:SubmissionDataType="Char">
                <Description>
                    <TranslatedText xml:lang="en">Concomitant Medication Name</TranslatedText>
                </Description>
                <Question>
                    <TranslatedText xml:lang="en">What was the (concomitant)
                        [medication/treatment/therapy] (name/term)?</TranslatedText>
                </Question>
                <Alias Context="sdtmigDatasetMappingTarget_0" Name="CM.CMTRT"/>
                <mdr:Prompt>
                    <TranslatedText xml:lang="en">(Concomitant)
                        [Medication/Treatment/Therapy]</TranslatedText>
                </mdr:Prompt>
                <mdr:CRFCompletionInstructions>
                    <TranslatedText xml:lang="en">Record only one [medication/treatment/therapy] per
                        line. Provide the full trade or proprietary name of the
                        [medication/treatment/therapy]; otherwise the generic name may be
                        recorded.</TranslatedText>
                </mdr:CRFCompletionInstructions>
                <mdr:ImplementationNotes>
                    <TranslatedText xml:lang="en">In most cases, the verbatim drug names or
                        treatment will be coded to a standard dictionary such as WHO DRUG after the
                        data have been collected on the CRF. For the collection of verbatim drug
                        name or treatments , the recommendation is to ask the sites to provide the
                        full trade or proprietary name since it is more exact than the generic. The
                        full trade name provides the base generic and the appropriate salt for that
                        particular drug. In addition, for coding purposes it helps with ATC
                        selection. For example, Tylenol with codeine #1 has a different ATC code
                        from Tylenol with codeine #3. This field can be used for either prior or
                        concomitant medication/treatments.</TranslatedText>
                </mdr:ImplementationNotes>
                <mdr:MappingInstructions>
                    <TranslatedText xml:lang="en">Maps directly to the SDTMIG variable listed in the
                        column with the heading "SDTMIG Target".</TranslatedText>
                </mdr:MappingInstructions>
                <mdr:Definition>
                    <TranslatedText xml:lang="en">Verbatim medication name or treatments (include
                        only treatments with data collection characteristics similar to
                        medications).</TranslatedText>
                </mdr:Definition>
            </ItemDef>
            <ItemDef DataType="text" Name="CMOCCUR" OID="IT.CM.CMOCCUR" mdr:Core="O"
                mdr:SubmissionDataType="Char">
                <Description>
                    <TranslatedText xml:lang="en">Concomitant Meds Occurrence</TranslatedText>
                </Description>
                <Question>
                    <TranslatedText xml:lang="en">Did the subject take [pre-specified (concomitant)
                        medication/treatment/therapy/dose]?; Has the subject taken [pre-specified
                        (concomitant) medication/treatment/therapy/dose]?</TranslatedText>
                </Question>
                <CodeListRef CodeListOID="CL.C66742"/>
                <Alias Context="sdtmigDatasetMappingTarget_0" Name="CM.CMOCCUR"/>
                <mdr:Prompt>
                    <TranslatedText xml:lang="en">[Specific (Concomitant)
                        [Medication/Treatment/Therapy]</TranslatedText>
                </mdr:Prompt>
                <mdr:CRFCompletionInstructions>
                    <TranslatedText xml:lang="en">Indicate if [specific medication/treatment] was
                        taken by checking Yes or No.</TranslatedText>
                </mdr:CRFCompletionInstructions>
                <mdr:ImplementationNotes>
                    <TranslatedText xml:lang="en">CMOCCUR is used to report the occurrence of a
                        pre-specific medication/treatment. CMOCCUR is not used for spontaneously
                        free text reported concomitant medication/treatments. The site should be
                        able to indicate that the response was not asked or
                        answered.</TranslatedText>
                </mdr:ImplementationNotes>
                <mdr:MappingInstructions>
                    <TranslatedText xml:lang="en">Maps directly to the SDTMIG variable listed in the
                        column with the heading "SDTMIG Target". If the response was not asked or
                        answered, populate the SDTMIG variable CMSTAT with "NOT
                        DONE".</TranslatedText>
                </mdr:MappingInstructions>
                <mdr:Definition>
                    <TranslatedText xml:lang="en">An indication whether the pre-specified
                        medication/treatment/therapy (CMTRT) or the group of
                        medications/treatments/therapies was administered when information about the
                        occurrence of a specific intervention is solicited.</TranslatedText>
                </mdr:Definition>
            </ItemDef>
            <ItemDef DataType="text" Name="CMINGRD" OID="IT.CM.CMINGRD" mdr:Core="O"
                mdr:SubmissionDataType="Char">
                <Description>
                    <TranslatedText xml:lang="en">Concomitant Meds Active
                        Ingredients</TranslatedText>
                </Description>
                <Question>
                    <TranslatedText xml:lang="en">What were the active ingredients?</TranslatedText>
                </Question>
                <mdr:Prompt>
                    <TranslatedText xml:lang="en">Active Ingredients</TranslatedText>
                </mdr:Prompt>
                <mdr:CRFCompletionInstructions>
                    <TranslatedText xml:lang="en">Prior to a subject's clinical visit, remind all
                        subjects to bring all medications bottles, packs etc. they are taking with
                        them to their clinical visit. Record all active ingredient(s) off the
                        medication label and separate each ingredient with a comma for the name of
                        drug medication or treatment taken. For example, the medication Dolmen, if
                        manufactured in Spain, the active ingredients should be collected as noted
                        below: Active Ingredient: Acetylsalicylic Acid, Ascorbic acid, codeine
                        phosphate.</TranslatedText>
                </mdr:CRFCompletionInstructions>
                <mdr:ImplementationNotes>
                    <TranslatedText xml:lang="en">This may be collected in addition to the
                        Medication/Treatment Name. Collecting this provides more detailed
                        information when coding to a medication dictionary like WHO Drug Enhanced
                        format C which now codes to the ingredient level for many trade named
                        medications. For example, the medication Dolmen, depending on the country
                        where it is manufactured, the active ingredients may be different. Spain:
                        Acetylsalicylic Acid, Ascorbic acid, codeine phosphate Italy and Czech
                        Republic: contains Tenoxicam Estonia and Latvia: contains Dexketoprofen
                        trometamol.</TranslatedText>
                </mdr:ImplementationNotes>
                <mdr:MappingInstructions>
                    <TranslatedText xml:lang="en">Does not map to an SDTMIG variable. The SDTM
                        Annotated CRF is annotated to indicate that this field is NOT
                        SUBMITTED.</TranslatedText>
                </mdr:MappingInstructions>
                <mdr:Definition>
                    <TranslatedText xml:lang="en">Medication Ingredients.</TranslatedText>
                </mdr:Definition>
            </ItemDef>
            <ItemDef DataType="text" Name="CMINDC" OID="IT.CM.CMINDC" mdr:Core="R/C"
                mdr:SubmissionDataType="Char">
                <Description>
                    <TranslatedText xml:lang="en">Concomitant Meds Indication</TranslatedText>
                </Description>
                <Question>
                    <TranslatedText xml:lang="en">For what indication, was the (concomitant)
                        [medication/treatment/therapy] taken?</TranslatedText>
                </Question>
                <Alias Context="sdtmigDatasetMappingTarget_0" Name="CM.CMINDC"/>
                <mdr:Prompt>
                    <TranslatedText xml:lang="en">Indication</TranslatedText>
                </mdr:Prompt>
                <mdr:CRFCompletionInstructions>
                    <TranslatedText xml:lang="en">Record the reason the medication was taken based
                        on clinical investigator's evaluation. If taken to treat a condition, and a
                        diagnosis was made, the indication should be the diagnosis. If taken to
                        treat a condition, and no diagnosis was made, the indication should be the
                        signs and symptoms. If taken as prophylaxis, report as "Prophylaxis for "
                        and include a description of the condition(s).</TranslatedText>
                </mdr:CRFCompletionInstructions>
                <mdr:ImplementationNotes>
                    <TranslatedText xml:lang="en">This is not the pharmacological/therapeutic
                        classification of an agent (e.g., antibiotic, analgesic, etc.), but the
                        reason for its administration to the subject. This additional information is
                        collected on the CRF when the sponsor would want to capture the reason(s)
                        why a subject took a medication/treatment. This information can then be used
                        as deemed appropriate for coding, analysis (i.e., in the classification of
                        medications), for reconciling the medications/treatments taken by a subject
                        with their provided medical history and/or AEs/SAEs as part of the data
                        clean-up and monitoring process, etc.</TranslatedText>
                </mdr:ImplementationNotes>
                <mdr:MappingInstructions>
                    <TranslatedText xml:lang="en">Maps directly to the SDTMIG variable listed in the
                        column with the heading "SDTMIG Target".</TranslatedText>
                </mdr:MappingInstructions>
                <mdr:Definition>
                    <TranslatedText xml:lang="en">The condition, disease, symptom or disorder that
                        the concomitant (non-study) medication/treatment/therapy was used to address
                        or investigate (e.g., why the medication/treatment/therapy was taken or
                        administered).</TranslatedText>
                </mdr:Definition>
            </ItemDef>
            <ItemDef DataType="text" Name="CMAENO" OID="IT.CM.CMAENO" mdr:Core="O"
                mdr:SubmissionDataType="Char">
                <Description>
                    <TranslatedText xml:lang="en">Related Adverse Event ID</TranslatedText>
                </Description>
                <Question>
                    <TranslatedText xml:lang="en">What was the identifier for the adverse event(s)
                        for which the (concomitant) [medication/treatment/therapy] was
                        taken?</TranslatedText>
                </Question>
                <mdr:Prompt>
                    <TranslatedText xml:lang="en">Adverse Event Identifier</TranslatedText>
                </mdr:Prompt>
                <mdr:CRFCompletionInstructions>
                    <TranslatedText xml:lang="en">Record the identifier of the Adverse Event for
                        which this (concomitant) [medication/treatment/therapy] was
                        taken.</TranslatedText>
                </mdr:CRFCompletionInstructions>
                <mdr:ImplementationNotes>
                    <TranslatedText xml:lang="en">Intent is to establish a link between the
                        medication/treatment and the AE that was reported. CMAENO can be used to
                        identify a relationship between records in CM dataset and records in the AE
                        dataset. See section 8.2 in the SDTMIG V3.2 for information on
                        RELREC.</TranslatedText>
                </mdr:ImplementationNotes>
                <mdr:MappingInstructions>
                    <TranslatedText xml:lang="en">This does not map directly to an SDTMIG variable.
                        For the SDTM submission datasets, may be used to create RELREC to link this
                        record with a record in the Adverse Events domain.</TranslatedText>
                </mdr:MappingInstructions>
                <mdr:Definition>
                    <TranslatedText xml:lang="en">Identifier for the adverse event that is the
                        indication for this medication/treatment/therapy.</TranslatedText>
                </mdr:Definition>
            </ItemDef>
            <ItemDef DataType="text" Name="CMMHNO" OID="IT.CM.CMMHNO" mdr:Core="O"
                mdr:SubmissionDataType="Char">
                <Description>
                    <TranslatedText xml:lang="en">Related Medical History Event ID</TranslatedText>
                </Description>
                <Question>
                    <TranslatedText xml:lang="en">What was the identifier for the medical history
                        event(s) for which the (concomitant) [medication/treatment/therapy] was
                        taken?</TranslatedText>
                </Question>
                <mdr:Prompt>
                    <TranslatedText xml:lang="en">Medical History Event Identifier</TranslatedText>
                </mdr:Prompt>
                <mdr:CRFCompletionInstructions>
                    <TranslatedText xml:lang="en">Record the identifier of the medical history event
                        for which this (concomitant) [medication/treatment/therapy] was
                        taken.</TranslatedText>
                </mdr:CRFCompletionInstructions>
                <mdr:ImplementationNotes>
                    <TranslatedText xml:lang="en">Intent is to establish a link between the medical
                        history condition and the medication/treatment taken for the medical history
                        condition. CMMHNO can be used to identify a relationship between records in
                        the CM dataset and records in the MH dataset. See section 8.2 in the SDTMIG
                        V3.2 for information on RELREC.</TranslatedText>
                </mdr:ImplementationNotes>
                <mdr:MappingInstructions>
                    <TranslatedText xml:lang="en">This does not map directly to an SDTMIG variable.
                        For the SDTM submission datasets, may be used to create RELREC to link this
                        record with a record in the Medical History domain.</TranslatedText>
                </mdr:MappingInstructions>
                <mdr:Definition>
                    <TranslatedText xml:lang="en">Identifier for the medical history condition that
                        is the indication for this medication/treatment/therapy.</TranslatedText>
                </mdr:Definition>
            </ItemDef>
            <ItemDef DataType="double" Name="CMDOSE" OID="IT.CM.CMDOSE" mdr:Core="O"
                mdr:SubmissionDataType="Num">
                <Description>
                    <TranslatedText xml:lang="en">Concomitant Meds Dose</TranslatedText>
                </Description>
                <Question>
                    <TranslatedText xml:lang="en">What was the individual dose (of the concomitant
                        [medication/treatment/therapy] per administration)?</TranslatedText>
                </Question>
                <Alias Context="sdtmigDatasetMappingTarget_0" Name="CM.CMDOSE"/>
                <mdr:Prompt>
                    <TranslatedText xml:lang="en">[Dose/Amount] (per
                        administration)</TranslatedText>
                </mdr:Prompt>
                <mdr:CRFCompletionInstructions>
                    <TranslatedText xml:lang="en">Record the dose of (concomitant)
                        [medication/treatment] taken per administration (e.g.,
                        200).</TranslatedText>
                </mdr:CRFCompletionInstructions>
                <mdr:ImplementationNotes>
                    <TranslatedText xml:lang="en">Used when the dose/amount
                        taken/administered/consumed has only numeric entries. If non-numeric entries
                        are possible, use the CDASH field CMDSTXT.</TranslatedText>
                </mdr:ImplementationNotes>
                <mdr:MappingInstructions>
                    <TranslatedText xml:lang="en">Maps directly to the SDTMIG variable listed in the
                        column with the heading "SDTMIG Target".</TranslatedText>
                </mdr:MappingInstructions>
                <mdr:Definition>
                    <TranslatedText xml:lang="en">The dose of medication/treatment (e.g. --TRT )
                        given at one time represented as a numeric value.</TranslatedText>
                </mdr:Definition>
            </ItemDef>
            <ItemDef DataType="text" Name="CMDSTXT" OID="IT.CM.CMDSTXT" mdr:Core="O"
                mdr:SubmissionDataType="Char">
                <Description>
                    <TranslatedText xml:lang="en">Concomitant Meds Dose Description</TranslatedText>
                </Description>
                <Question>
                    <TranslatedText xml:lang="en">What was the individual dose of the (concomitant)
                        [mediation/treatment/therapy]?</TranslatedText>
                </Question>
                <Alias Context="sdtmigDatasetMappingTarget_0" Name="CM.CMDOSTXT"/>
                <Alias Context="sdtmigDatasetMappingTarget_1" Name="CM.CMDOSE"/>
                <mdr:Prompt>
                    <TranslatedText xml:lang="en">Dose</TranslatedText>
                </mdr:Prompt>
                <mdr:CRFCompletionInstructions>
                    <TranslatedText xml:lang="en">Record the dose of (concomitant)
                        [medication/treatment] taken per administration (e.g.,
                        200).</TranslatedText>
                </mdr:CRFCompletionInstructions>
                <mdr:ImplementationNotes>
                    <TranslatedText xml:lang="en">Defining this data collection field as a dose text
                        field allows for flexibility in capturing dose entries as numbers, text or
                        ranges. The data collected in this dose text-format field should be
                        separated or mapped to either SDTMIG CMDOSE if numeric or CMDOSTXT if
                        text.</TranslatedText>
                </mdr:ImplementationNotes>
                <mdr:MappingInstructions>
                    <TranslatedText xml:lang="en">This does not map directly to an SDTMIG variable.
                        Numeric values map to CMDOSE in SDTM. Non-numeric values (e.g., 200-400) map
                        to CMDOSTXT in SDTM.</TranslatedText>
                </mdr:MappingInstructions>
                <mdr:Definition>
                    <TranslatedText xml:lang="en">The dose of medication/treatment taken per
                        administration.</TranslatedText>
                </mdr:Definition>
            </ItemDef>
            <ItemDef DataType="text" Name="CMDOSTOT" OID="IT.CM.CMDOSTOT" mdr:Core="O"
                mdr:SubmissionDataType="Char">
                <Description>
                    <TranslatedText xml:lang="en">Concomitant Meds Total Daily Dose</TranslatedText>
                </Description>
                <Question>
                    <TranslatedText xml:lang="en">What was the total daily dose of the (concomitant)
                        [medication/treatment/therapy]?</TranslatedText>
                </Question>
                <Alias Context="sdtmigDatasetMappingTarget_0" Name="CM.CMDOSTOT"/>
                <mdr:Prompt>
                    <TranslatedText xml:lang="en">Total Daily Dose</TranslatedText>
                </mdr:Prompt>
                <mdr:CRFCompletionInstructions>
                    <TranslatedText xml:lang="en">Record the total dose of (concomitant)
                        [medication/treatment/therapy] taken daily.</TranslatedText>
                </mdr:CRFCompletionInstructions>
                <mdr:ImplementationNotes>
                    <TranslatedText xml:lang="en">For use when only total daily dose is collected in
                        the CRF. For general medications/treatments, it is not recommended to use
                        Total Daily Dose. Instead, this can be calculated from other fields such as
                        Units, Dose, and Frequency.</TranslatedText>
                </mdr:ImplementationNotes>
                <mdr:MappingInstructions>
                    <TranslatedText xml:lang="en">Maps directly to the SDTMIG variable listed in the
                        column with the heading "SDTMIG Target".</TranslatedText>
                </mdr:MappingInstructions>
                <mdr:Definition>
                    <TranslatedText xml:lang="en">The total amount of CMTRT taken over a day using
                        the units in CMDOSU.</TranslatedText>
                </mdr:Definition>
            </ItemDef>
            <ItemDef DataType="text" Name="CMDOSU" OID="IT.CM.CMDOSU" mdr:Core="R/C"
                mdr:SubmissionDataType="Char">
                <Description>
                    <TranslatedText xml:lang="en">Concomitant Meds Dose Unit</TranslatedText>
                </Description>
                <Question>
                    <TranslatedText xml:lang="en">What is the unit (for the dose of concomitant
                        [medication/treatment/therapy])?</TranslatedText>
                </Question>
                <CodeListRef CodeListOID="CL.C71620"/>
                <Alias Context="sdtmigDatasetMappingTarget_0" Name="CM.CMDOSU"/>
                <mdr:AltCodeListRef CodeListOID="CL.C78417"/>
                <mdr:Prompt>
                    <TranslatedText xml:lang="en">(Dose) Unit</TranslatedText>
                </mdr:Prompt>
                <mdr:CRFCompletionInstructions>
                    <TranslatedText xml:lang="en">Record the dose unit of the dose of concomitant
                        [medication/treatment/therapy] taken (e.g., mg.).</TranslatedText>
                </mdr:CRFCompletionInstructions>
                <mdr:ImplementationNotes>
                    <TranslatedText xml:lang="en">When sponsors collect data for amount of dose
                        taken (i.e., Dose, Total Daily Dose), Unit must be collected as well (if
                        applicable).</TranslatedText>
                </mdr:ImplementationNotes>
                <mdr:MappingInstructions>
                    <TranslatedText xml:lang="en">Maps directly to the SDTMIG variable listed in the
                        column with the heading "SDTMIG Target".</TranslatedText>
                </mdr:MappingInstructions>
                <mdr:Definition>
                    <TranslatedText xml:lang="en">The unit associated with the concomitant
                        medication/treatment/therapy taken (e.g., mg in "2mg three times per
                        day").</TranslatedText>
                </mdr:Definition>
            </ItemDef>
            <ItemDef DataType="text" Name="CMDOSFRM" OID="IT.CM.CMDOSFRM" mdr:Core="O"
                mdr:SubmissionDataType="Char">
                <Description>
                    <TranslatedText xml:lang="en">Concomitant Meds Dose Form</TranslatedText>
                </Description>
                <Question>
                    <TranslatedText xml:lang="en">What was the dose form of the (concomitant)
                        [medication/treatment/therapy]?</TranslatedText>
                </Question>
                <CodeListRef CodeListOID="CL.C66726"/>
                <Alias Context="sdtmigDatasetMappingTarget_0" Name="CM.CMDOSFRM"/>
                <mdr:AltCodeListRef CodeListOID="CL.C78418"/>
                <mdr:Prompt>
                    <TranslatedText xml:lang="en">Dose Form</TranslatedText>
                </mdr:Prompt>
                <mdr:CRFCompletionInstructions>
                    <TranslatedText xml:lang="en">Record the pharmaceutical dosage form (e.g.,
                        TABLET CAPSULE, SYRUP) of delivery for the concomitant
                        [medication/treatment/therapy] taken.</TranslatedText>
                </mdr:CRFCompletionInstructions>
                <mdr:ImplementationNotes>
                    <TranslatedText xml:lang="en">Some drugs have multiple forms and this field may
                        be needed to code the drug to an ATC level. However, in general, this level
                        of detail should not be necessary except for medications/treatments of
                        interest.</TranslatedText>
                </mdr:ImplementationNotes>
                <mdr:MappingInstructions>
                    <TranslatedText xml:lang="en">Maps directly to the SDTMIG variable listed in the
                        column with the heading "SDTMIG Target".</TranslatedText>
                </mdr:MappingInstructions>
                <mdr:Definition>
                    <TranslatedText xml:lang="en">The pharmaceutical dosage form in which the CMTRT
                        is physically presented.</TranslatedText>
                </mdr:Definition>
            </ItemDef>
            <ItemDef DataType="text" Name="CMDOSFRQ" OID="IT.CM.CMDOSFRQ" mdr:Core="O"
                mdr:SubmissionDataType="Char">
                <Description>
                    <TranslatedText xml:lang="en">Concomitant Meds Dosing Frequency per
                        Interval</TranslatedText>
                </Description>
                <Question>
                    <TranslatedText xml:lang="en">What was the frequency of the (concomitant)
                        [medication/treatment/therapy]?</TranslatedText>
                </Question>
                <CodeListRef CodeListOID="CL.C71113"/>
                <Alias Context="sdtmigDatasetMappingTarget_0" Name="CM.CMDOSFRQ"/>
                <mdr:AltCodeListRef CodeListOID="CL.C78419"/>
                <mdr:Prompt>
                    <TranslatedText xml:lang="en">Frequency</TranslatedText>
                </mdr:Prompt>
                <mdr:CRFCompletionInstructions>
                    <TranslatedText xml:lang="en">Record how often the (concomitant)
                        [medication/treatment/therapy] was taken (e.g., BID, PRN).</TranslatedText>
                </mdr:CRFCompletionInstructions>
                <mdr:ImplementationNotes>
                    <TranslatedText xml:lang="en">The frequency of the concomitant
                        medication/treatment. When collected, the recommendation is to collect
                        dosing information in separate fields (e.g., CMDOSE, CMDOSEU, CMDOSFRQ) for
                        specific and consistent data collection and to enable programmatically
                        utilizing these data.</TranslatedText>
                </mdr:ImplementationNotes>
                <mdr:MappingInstructions>
                    <TranslatedText xml:lang="en">Maps directly to the SDTMIG variable listed in the
                        column with the heading "SDTMIG Target".</TranslatedText>
                </mdr:MappingInstructions>
                <mdr:Definition>
                    <TranslatedText xml:lang="en">The number of doses given/administered/taken
                        during a specific interval.</TranslatedText>
                </mdr:Definition>
            </ItemDef>
            <ItemDef DataType="text" Name="CMROUTE" OID="IT.CM.CMROUTE" mdr:Core="R/C"
                mdr:SubmissionDataType="Char">
                <Description>
                    <TranslatedText xml:lang="en">Concomitant Meds Route of
                        Administration</TranslatedText>
                </Description>
                <Question>
                    <TranslatedText xml:lang="en">What was the route of administration of the
                        (concomitant) [medication/treatment/therapy]?</TranslatedText>
                </Question>
                <CodeListRef CodeListOID="CL.C66729"/>
                <Alias Context="sdtmigDatasetMappingTarget_0" Name="CM.CMROUTE"/>
                <mdr:AltCodeListRef CodeListOID="CL.C78420"/>
                <mdr:Prompt>
                    <TranslatedText xml:lang="en">Route</TranslatedText>
                </mdr:Prompt>
                <mdr:CRFCompletionInstructions>
                    <TranslatedText xml:lang="en">Provide the route of administration for the
                        (concomitant) [medication/treatment/therapy].</TranslatedText>
                </mdr:CRFCompletionInstructions>
                <mdr:ImplementationNotes>
                    <TranslatedText xml:lang="en">This additional information may be important to
                        collect on the CRF when the sponsor would want to capture a
                        medication's/treatment's route of administration for purposes such as coding
                        and the medication/treatment may have more than one route. Some companies
                        may use route in coding medications/treatments to be able to choose a
                        precise preferred name and ATC code.</TranslatedText>
                </mdr:ImplementationNotes>
                <mdr:MappingInstructions>
                    <TranslatedText xml:lang="en">Maps directly to the SDTMIG variable listed in the
                        column with the heading "SDTMIG Target".</TranslatedText>
                </mdr:MappingInstructions>
                <mdr:Definition>
                    <TranslatedText xml:lang="en">The route of administration of the (concomitant)
                        [medication/treatment/therapy].</TranslatedText>
                </mdr:Definition>
            </ItemDef>
            <ItemDef DataType="text" Name="CMSTDAT" OID="IT.CM.CMSTDAT" mdr:Core="R/C"
                mdr:SubmissionDataType="Char">
                <Description>
                    <TranslatedText xml:lang="en">Concomitant Meds Start Date</TranslatedText>
                </Description>
                <Question>
                    <TranslatedText xml:lang="en">What was the (concomitant)
                        [medication/treatment/therapy/dose] start date?</TranslatedText>
                </Question>
                <Alias Context="sdtmigDatasetMappingTarget_0" Name="CM.CMSTDTC"/>
                <mdr:Prompt>
                    <TranslatedText xml:lang="en">Start Date</TranslatedText>
                </mdr:Prompt>
                <mdr:CRFCompletionInstructions>
                    <TranslatedText xml:lang="en">Record the date the concomitant
                        [medication/treatment] was first taken using this format (DD-MON-YYYY). If
                        the subject has been taking the concomitant [medication/treatment] for a
                        considerable amount of time prior to the start of the study, it is
                        acceptable to have an incomplete date. Concomitant [medication/treatment]
                        taken during the study are expected to have a complete start date. Prior
                        concomitant [medication/treatment] that are exclusionary should have both a
                        start and end date.</TranslatedText>
                </mdr:CRFCompletionInstructions>
                <mdr:ImplementationNotes>
                    <TranslatedText xml:lang="en">The assumption is that sponsors should either have
                        a Start Date or will indicate that the medication or therapy was started
                        before, during or after the study period. The preferred method is to collect
                        a complete Start Date. Partial dates (e.g., providing year only) for
                        medications/treatment started a considerable amount of time prior to the
                        start of study are acceptable.</TranslatedText>
                </mdr:ImplementationNotes>
                <mdr:MappingInstructions>
                    <TranslatedText xml:lang="en">This does not map directly to an SDTMIG variable.
                        For the SDTM submission dataset, concatenate all collected CDASH START DATE
                        and TIME components and populate the SDTMIG variable CMSTDTC in ISO 8601
                        format.</TranslatedText>
                </mdr:MappingInstructions>
                <mdr:Definition>
                    <TranslatedText xml:lang="en">The start date when the concomitant
                        medication/treatment/therapy was first taken represented in an unambiguous
                        date format (e.g., DD-MON-YYYY).</TranslatedText>
                </mdr:Definition>
            </ItemDef>
            <ItemDef DataType="text" Name="CMSTTIM" OID="IT.CM.CMSTTIM" mdr:Core="R/C"
                mdr:SubmissionDataType="Char">
                <Description>
                    <TranslatedText xml:lang="en">Concomitant Meds Start Time</TranslatedText>
                </Description>
                <Question>
                    <TranslatedText xml:lang="en">What was the (concomitant)
                        [medication/treatment/therapy/dose] start time?</TranslatedText>
                </Question>
                <Alias Context="sdtmigDatasetMappingTarget_0" Name="CM.CMSTDTC"/>
                <mdr:Prompt>
                    <TranslatedText xml:lang="en">Start Time</TranslatedText>
                </mdr:Prompt>
                <mdr:CRFCompletionInstructions>
                    <TranslatedText xml:lang="en">Record the time (as complete as possible) that the
                        concomitant [medication/treatment] was started.</TranslatedText>
                </mdr:CRFCompletionInstructions>
                <mdr:ImplementationNotes>
                    <TranslatedText xml:lang="en">Recommend collecting the time a concomitant
                        medication/treatment was started only when a protocol or data collection
                        scenarios supports it. Typically, a start time is not collected unless the
                        subject is under the direct care of the site at the time a concomitant
                        medication/treatment administered or the subject records the start time in a
                        diary. See CDASHIG Section 3.7 Mapping Relative Times from Collection to
                        Submissions and SDTMIG IG 3.2 section 4.1.4.7 for more
                        information.</TranslatedText>
                </mdr:ImplementationNotes>
                <mdr:MappingInstructions>
                    <TranslatedText xml:lang="en">This does not map directly to an SDTMIG variable.
                        For the SDTM submission dataset, concatenate all collected CDASH START DATE
                        and TIME components and populate the SDTMIG variable CMSTDTC in ISO 8601
                        format.</TranslatedText>
                </mdr:MappingInstructions>
                <mdr:Definition>
                    <TranslatedText xml:lang="en">The time the concomitant
                        medication/treatment/therapy was started represented in an unambiguous time
                        format (e.g., hh:mm:ss).</TranslatedText>
                </mdr:Definition>
            </ItemDef>
            <ItemDef DataType="text" Name="CMPRIOR" OID="IT.CM.CMPRIOR" mdr:Core="O"
                mdr:SubmissionDataType="Char">
                <Description>
                    <TranslatedText xml:lang="en">Prior Concomitant Meds</TranslatedText>
                </Description>
                <Question>
                    <TranslatedText xml:lang="en">Was the (concomitant)
                        [medication/treatment/therapy] given/taken prior to [CMSTTPT]?; Was the
                        (concomitant) [medication/treatment/therapy] given/taken prior to study
                        start?</TranslatedText>
                </Question>
                <CodeListRef CodeListOID="CL.C66742"/>
                <Alias Context="sdtmigDatasetMappingTarget_0" Name="CM.CMSTRF"/>
                <Alias Context="sdtmigDatasetMappingTarget_1" Name="CM.CMSTTPT"/>
                <mdr:Prompt>
                    <TranslatedText xml:lang="en">Prior to [CMSTTPT]; Prior to
                        Study</TranslatedText>
                </mdr:Prompt>
                <mdr:CRFCompletionInstructions>
                    <TranslatedText xml:lang="en">Check if the concomitant
                        [medication/treatment/therapy] was started before the
                        study.</TranslatedText>
                </mdr:CRFCompletionInstructions>
                <mdr:ImplementationNotes>
                    <TranslatedText xml:lang="en">Sponsors may collect this information rather than
                        start dates. See CDASHIG Section 3.7 Mapping Relative Times from Collection
                        to Submissions and SDTMIG IG 3.2 section 4.1.4.7 for more information.
                        Sponsors may collect this information rather than start
                        dates.</TranslatedText>
                </mdr:ImplementationNotes>
                <mdr:MappingInstructions>
                    <TranslatedText xml:lang="en">This does not map directly to an SDTMIG variable.
                        May be used to populate a value into an SDTM relative timing variable such
                        as CMSTRF or CMSTRTPT. When populating CMSTRF, or CMSTRTPT, if the value of
                        the CDASH field CMPRIOR is "Y" a value from the CDISC CT (STENRF) may be
                        used. When CMPRIOR refers to the Study Reference Period (defined in
                        DM.RFSTDTC to DM.RFENDTC) the SDTM variable CMSTRF should be populated. When
                        CMPRIOR is compared to any other time point, the SDTM variables CMSTRTPT and
                        CMSTTPT should be used. Note: CMSTRTPT must refer to the time point anchor
                        described in CMSTTPT.</TranslatedText>
                </mdr:MappingInstructions>
                <mdr:Definition>
                    <TranslatedText xml:lang="en">Indication the concomitant
                        medication/treatment/therapy was given or taken prior to [CMSTTPT] or prior
                        to the date in DM.RFSTDTC.</TranslatedText>
                </mdr:Definition>
            </ItemDef>
            <ItemDef DataType="text" Name="CMONGO" OID="IT.CM.CMONGO" mdr:Core="R/C"
                mdr:SubmissionDataType="Char">
                <Description>
                    <TranslatedText xml:lang="en">Ongoing Concomitant Meds</TranslatedText>
                </Description>
                <Question>
                    <TranslatedText xml:lang="en">Was the (concomitant)
                        [medication/treatment/therapy] ongoing?</TranslatedText>
                </Question>
                <CodeListRef CodeListOID="CL.C66742"/>
                <Alias Context="sdtmigDatasetMappingTarget_0" Name="CM.CMENRF"/>
                <Alias Context="sdtmigDatasetMappingTarget_1" Name="CM.CMENRTPT"/>
                <mdr:Prompt>
                    <TranslatedText xml:lang="en">Ongoing</TranslatedText>
                </mdr:Prompt>
                <mdr:CRFCompletionInstructions>
                    <TranslatedText xml:lang="en">Record the concomitant
                        [medication/treatment/therapy] as ongoing if the subject has not stopped
                        taking the concomitant [medication/treatment/therapy] at the time of data
                        collection and the end date should be left blank.</TranslatedText>
                </mdr:CRFCompletionInstructions>
                <mdr:ImplementationNotes>
                    <TranslatedText xml:lang="en">This box should be checked to indicate that the
                        concomitant medication/treatment has not stopped at the time of data
                        collection. It is expected that every recorded medication/treatment should
                        have either an End Date or be checked as Ongoing, but not both. However, in
                        cases where ongoing concomitant medications/treatments are not permitted, it
                        may not be necessary to include an Ongoing field in the CRF. Reference
                        CDASHIG Section 3.7 for more information about collecting relative date/time
                        and see section 4.1.4 of the SDTMIG V. 3.2 for information about mapping
                        relative times.</TranslatedText>
                </mdr:ImplementationNotes>
                <mdr:MappingInstructions>
                    <TranslatedText xml:lang="en">This does not map directly to an SDTM variable.
                        May be used to populate a value into an SDTMIG relative timing variable such
                        as CMENRF or CMENRTPT. When populating CMENRF, if the value of CMONGO is
                        "Y", the value of "DURING", "AFTER" or "DURING/AFTER" may be used. When
                        populating CMENRTPT, if the value of CMONGO is "Y", the value of "ONGOING"
                        may be used. When CMONGO refers to the Study Reference Period (defined in
                        DM.RFSTDTC to DM.RFENDTC) the SDTM variable CMENRF should be populated. When
                        CMONGO is used in conjunction with other time point, the SDTM variables
                        CMENRTPT and CMENTPT should be used. Note: CMENRTPT must refer to a time
                        point anchor described in CMENTPT.</TranslatedText>
                </mdr:MappingInstructions>
                <mdr:Definition>
                    <TranslatedText xml:lang="en">Indication the concomitant
                        medication/treatment/therapy is ongoing when no end date is
                        provided.</TranslatedText>
                </mdr:Definition>
            </ItemDef>
            <ItemDef DataType="text" Name="CMENDAT" OID="IT.CM.CMENDAT" mdr:Core="R/C"
                mdr:SubmissionDataType="Char">
                <Description>
                    <TranslatedText xml:lang="en">Concomitant Meds End Date</TranslatedText>
                </Description>
                <Question>
                    <TranslatedText xml:lang="en">What was the (concomitant)
                        [medication/treatment/therapy/dose] end date?</TranslatedText>
                </Question>
                <Alias Context="sdtmigDatasetMappingTarget_0" Name="CM.CMENDTC"/>
                <mdr:Prompt>
                    <TranslatedText xml:lang="en">End Date</TranslatedText>
                </mdr:Prompt>
                <mdr:CRFCompletionInstructions>
                    <TranslatedText xml:lang="en">Record the date the concomitant
                        [medication/treatment] was stopped using this format (DD-MON-YYYY). If the
                        subject has not stopped taking the concomitant [medication/treatment] leave
                        this field blank.</TranslatedText>
                </mdr:CRFCompletionInstructions>
                <mdr:ImplementationNotes>
                    <TranslatedText xml:lang="en">The assumption is that sponsors should either have
                        an End Date or will indicate that the medication or therapy was ongoing at
                        the time of collection or at the end of the study. However, in cases where
                        the End Date can be determined from dates collected elsewhere in the CRF it
                        is not necessary to include an End Date in the CRF. For example, if all
                        concomitant medications/treatments are administered only once during a
                        trial, the End Date will be the same as the Start Date.</TranslatedText>
                </mdr:ImplementationNotes>
                <mdr:MappingInstructions>
                    <TranslatedText xml:lang="en">This does not map directly to an SDTMIG variable.
                        For the SDTM submission dataset, concatenate all collected CDASH END DATE
                        and TIME components and populate the SDTMIG variable CMENDTC in ISO 8601
                        format.</TranslatedText>
                </mdr:MappingInstructions>
                <mdr:Definition>
                    <TranslatedText xml:lang="en">The date that the subject ended/stopped taking the
                        concomitant medication/treatment/therapy represented in an unambiguous date
                        format (e.g., DD-MON-YYYY).</TranslatedText>
                </mdr:Definition>
            </ItemDef>
            <ItemDef DataType="text" Name="CMENTIM" OID="IT.CM.CMENTIM" mdr:Core="R/C"
                mdr:SubmissionDataType="Char">
                <Description>
                    <TranslatedText xml:lang="en">Concomitant Meds End Time</TranslatedText>
                </Description>
                <Question>
                    <TranslatedText xml:lang="en">What was the [medication/treatment/therapy/dose]
                        end time?</TranslatedText>
                </Question>
                <Alias Context="sdtmigDatasetMappingTarget_0" Name="CM.CMENDTC"/>
                <mdr:Prompt>
                    <TranslatedText xml:lang="en">End Time</TranslatedText>
                </mdr:Prompt>
                <mdr:CRFCompletionInstructions>
                    <TranslatedText xml:lang="en">Record the time (as complete as possible) that the
                        concomitant medication/treatment was stopped.</TranslatedText>
                </mdr:CRFCompletionInstructions>
                <mdr:ImplementationNotes>
                    <TranslatedText xml:lang="en">Recommend collecting the time a concomitant
                        medication or treatment was ended only when a protocol or data collection
                        scenarios require it or the subject records the start time in a diary.
                        Typically, an end time is not collected unless the subject is under the
                        direct care of the site at the time a concomitant medication/treatment is
                        stopped.</TranslatedText>
                </mdr:ImplementationNotes>
                <mdr:MappingInstructions>
                    <TranslatedText xml:lang="en">This does not map directly to an SDTMIG variable.
                        For the SDTM submission dataset, concatenate all collected CDASH END DATE
                        and TIME components and populate the SDTMIG variable CMENDTC in ISO 8601
                        format.</TranslatedText>
                </mdr:MappingInstructions>
                <mdr:Definition>
                    <TranslatedText xml:lang="en">The time when the subject ended/stopped taking the
                        concomitant medication/treatment/therapy represented in an unambiguous time
                        format (e.g., hh:mm:ss).</TranslatedText>
                </mdr:Definition>
            </ItemDef>
            <ItemDef DataType="text" Name="CMDECOD" OID="IT.CM.CMDECOD" mdr:Core="O"
                mdr:SubmissionDataType="Char">
                <Description>
                    <TranslatedText xml:lang="en">Concomitant Meds Dictionary or Standardized
                        Term</TranslatedText>
                </Description>
                <Question>
                    <TranslatedText xml:lang="en">N/A</TranslatedText>
                </Question>
                <Alias Context="sdtmigDatasetMappingTarget_0" Name="CM.CMDECOD"/>
                <mdr:Prompt>
                    <TranslatedText xml:lang="en">N/A</TranslatedText>
                </mdr:Prompt>
                <mdr:ImplementationNotes>
                    <TranslatedText xml:lang="en">This field does not typically appear on the CRF.
                        Sponsors will populate this through the coding process. Equivalent to the
                        generic drug name in WHO Drug, or a term in SNOMED, ICD9, or other published
                        or sponsor-defined dictionaries.</TranslatedText>
                </mdr:ImplementationNotes>
                <mdr:MappingInstructions>
                    <TranslatedText xml:lang="en">Maps directly to the SDTMIG variable listed in the
                        column with the heading "SDTMIG Target".</TranslatedText>
                </mdr:MappingInstructions>
                <mdr:Definition>
                    <TranslatedText xml:lang="en">The dictionary or sponsor-defined standardized
                        text description of the topic variable, CMTRT, or the modified topic
                        variable (CMMODIFY), if applicable.</TranslatedText>
                </mdr:Definition>
            </ItemDef>
            <ItemDef DataType="text" Name="CMCLAS" OID="IT.CM.CMCLAS" mdr:Core="O"
                mdr:SubmissionDataType="Char">
                <Description>
                    <TranslatedText xml:lang="en">Concomitant Meds Class
                        Description</TranslatedText>
                </Description>
                <Question>
                    <TranslatedText xml:lang="en">N/A</TranslatedText>
                </Question>
                <Alias Context="sdtmigDatasetMappingTarget_0" Name="CM.CMCLAS"/>
                <mdr:Prompt>
                    <TranslatedText xml:lang="en">N/A</TranslatedText>
                </mdr:Prompt>
                <mdr:ImplementationNotes>
                    <TranslatedText xml:lang="en">This field does not typically appear on the CRF.
                        Sponsors will populate this through the coding process. This would generally
                        be the class used for analysis.</TranslatedText>
                </mdr:ImplementationNotes>
                <mdr:MappingInstructions>
                    <TranslatedText xml:lang="en">Maps directly to the SDTMIG variable listed in the
                        column with the heading "SDTMIG Target".</TranslatedText>
                </mdr:MappingInstructions>
                <mdr:Definition>
                    <TranslatedText xml:lang="en">The class for the intervention, often obtained
                        from a coding dictionary.</TranslatedText>
                </mdr:Definition>
            </ItemDef>
            <ItemDef DataType="double" Name="CMCLASCD" OID="IT.CM.CMCLASCD" mdr:Core="O"
                mdr:SubmissionDataType="Num">
                <Description>
                    <TranslatedText xml:lang="en">Concomitant Meds Class Code</TranslatedText>
                </Description>
                <Question>
                    <TranslatedText xml:lang="en">N/A</TranslatedText>
                </Question>
                <Alias Context="sdtmigDatasetMappingTarget_0" Name="CM.CMCLASCD"/>
                <mdr:Prompt>
                    <TranslatedText xml:lang="en">N/A</TranslatedText>
                </mdr:Prompt>
                <mdr:ImplementationNotes>
                    <TranslatedText xml:lang="en">This field does not typically appear on the CRF.
                        Sponsors will populate this through the coding process. This would generally
                        be the class code used for analysis.</TranslatedText>
                </mdr:ImplementationNotes>
                <mdr:MappingInstructions>
                    <TranslatedText xml:lang="en">Maps directly to the SDTMIG variable listed in the
                        column with the heading "SDTMIG Target".</TranslatedText>
                </mdr:MappingInstructions>
                <mdr:Definition>
                    <TranslatedText xml:lang="en">The assigned dictionary code for the class for the
                        intervention.</TranslatedText>
                </mdr:Definition>
            </ItemDef>
            <ItemDef DataType="text" Name="CMATC1" OID="IT.CM.CMATC1" mdr:Core="O"
                mdr:SubmissionDataType="Char">
                <Description>
                    <TranslatedText xml:lang="en">ATC Level 1 Description</TranslatedText>
                </Description>
                <Question>
                    <TranslatedText xml:lang="en">N/A</TranslatedText>
                </Question>
                <Alias Context="sdtmigDatasetMappingTarget_0" Name="SUPPQUAL.QVAL"/>
                <mdr:Prompt>
                    <TranslatedText xml:lang="en">N/A</TranslatedText>
                </mdr:Prompt>
                <mdr:ImplementationNotes>
                    <TranslatedText xml:lang="en">This field does not typically appear on the CRF.
                        This is populated through the sponsor's coding process.</TranslatedText>
                </mdr:ImplementationNotes>
                <mdr:MappingInstructions>
                    <TranslatedText xml:lang="en">This does not map directly to an SDTMIG variable.
                        This information could be submitted in a SUPPCM dataset as the value of
                        SUPPCM.QVAL where SUPPCM.QNAM="CMATC1" and SUPPCM.QLABEL="ATC Level 1
                        Description". Sponsors should include an Origin column in the SUPPQ dataset
                        to indicate that the data was "ASSIGNED". Refer to the current SDTM and
                        SDTMIG for instructions on placement of non-standard variables in SDTM
                        domains.</TranslatedText>
                </mdr:MappingInstructions>
                <mdr:Definition>
                    <TranslatedText xml:lang="en">Dictionary text description of the first level of
                        hierarchy within the Anatomical Therapeutic Chemical Classification System.
                        Indicates the anatomical main group.</TranslatedText>
                </mdr:Definition>
            </ItemDef>
            <ItemDef DataType="double" Name="CMATC1CD" OID="IT.CM.CMATC1CD" mdr:Core="O"
                mdr:SubmissionDataType="Num">
                <Description>
                    <TranslatedText xml:lang="en">ATC Level 1 Code</TranslatedText>
                </Description>
                <Question>
                    <TranslatedText xml:lang="en">N/A</TranslatedText>
                </Question>
                <Alias Context="sdtmigDatasetMappingTarget_0" Name="SUPPQUAL.QVAL"/>
                <mdr:Prompt>
                    <TranslatedText xml:lang="en">N/A</TranslatedText>
                </mdr:Prompt>
                <mdr:ImplementationNotes>
                    <TranslatedText xml:lang="en">This field does not typically appear on the CRF.
                        This is populated through the sponsor's coding process.</TranslatedText>
                </mdr:ImplementationNotes>
                <mdr:MappingInstructions>
                    <TranslatedText xml:lang="en">This does not map directly to an SDTMIG variable.
                        This information could be submitted in a SUPPCM dataset as the value of
                        SUPPCM.QVAL where SUPPCM.QNAM ="MATC1CD" and SUPPCM.QLABEL="ATC Level 1
                        Code". Sponsors should include an Origin column in the SUPPQ dataset to
                        indicate that the data was "ASSIGNED".</TranslatedText>
                </mdr:MappingInstructions>
                <mdr:Definition>
                    <TranslatedText xml:lang="en">Dictionary code denoting the first level of
                        hierarchy within the Anatomical Therapeutic Chemical Classification System.
                        Indicates the anatomical main group.</TranslatedText>
                </mdr:Definition>
            </ItemDef>
            <ItemDef DataType="text" Name="CMATC2" OID="IT.CM.CMATC2" mdr:Core="O"
                mdr:SubmissionDataType="Char">
                <Description>
                    <TranslatedText xml:lang="en">ATC Level 2 Description</TranslatedText>
                </Description>
                <Question>
                    <TranslatedText xml:lang="en">N/A</TranslatedText>
                </Question>
                <Alias Context="sdtmigDatasetMappingTarget_0" Name="SUPPQUAL.QVAL"/>
                <mdr:Prompt>
                    <TranslatedText xml:lang="en">N/A</TranslatedText>
                </mdr:Prompt>
                <mdr:ImplementationNotes>
                    <TranslatedText xml:lang="en">This field does not typically appear on the CRF.
                        This is populated through the sponsor's coding process.</TranslatedText>
                </mdr:ImplementationNotes>
                <mdr:MappingInstructions>
                    <TranslatedText xml:lang="en">This does not map directly to an SDTMIG variable.
                        This information could be submitted in a SUPPCM dataset as the value of
                        SUPPCM.QVAL where SUPPCM.QNAM="CMATC2" and SUPPCM.QLABEL="ATC Level 2
                        Description". Sponsors should include an Origin column in the SUPPQ dataset
                        to indicate that the data was "ASSIGNED". Refer to the current SDTM and
                        SDTMIG for instructions on placement of non-standard variables in SDTM
                        domains.</TranslatedText>
                </mdr:MappingInstructions>
                <mdr:Definition>
                    <TranslatedText xml:lang="en">Dictionary text description for the second level
                        of hierarchy within the Anatomical Therapeutic Chemical Classification
                        System. Indicates the therapeutic main group.</TranslatedText>
                </mdr:Definition>
            </ItemDef>
            <ItemDef DataType="double" Name="CMATC2CD" OID="IT.CM.CMATC2CD" mdr:Core="O"
                mdr:SubmissionDataType="Num">
                <Description>
                    <TranslatedText xml:lang="en">ATC Level 2 Code</TranslatedText>
                </Description>
                <Question>
                    <TranslatedText xml:lang="en">N/A</TranslatedText>
                </Question>
                <Alias Context="sdtmigDatasetMappingTarget_0" Name="SUPPQUAL.QVAL"/>
                <mdr:Prompt>
                    <TranslatedText xml:lang="en">N/A</TranslatedText>
                </mdr:Prompt>
                <mdr:ImplementationNotes>
                    <TranslatedText xml:lang="en">This field does not typically appear on the CRF.
                        This is populated through the sponsor's coding process.</TranslatedText>
                </mdr:ImplementationNotes>
                <mdr:MappingInstructions>
                    <TranslatedText xml:lang="en">This does not map directly to an SDTMIG variable.
                        This information could be submitted in a SUPPCM dataset as the value of
                        SUPPCM.QVAL where SUPPCM.QNAM="CMATC2CD" and SUPPCM.QLABEL="ATC Level 2
                        Code". Sponsors should include an Origin column in the SUPPQ dataset to
                        indicate that the data was "ASSIGNED".</TranslatedText>
                </mdr:MappingInstructions>
                <mdr:Definition>
                    <TranslatedText xml:lang="en">Dictionary code denoting the second level of
                        hierarchy within the Anatomical Therapeutic Chemical Classification System.
                        Indicates the therapeutic main group.</TranslatedText>
                </mdr:Definition>
            </ItemDef>
            <ItemDef DataType="text" Name="CMATC3" OID="IT.CM.CMATC3" mdr:Core="O"
                mdr:SubmissionDataType="Char">
                <Description>
                    <TranslatedText xml:lang="en">ATC Level 3 Description</TranslatedText>
                </Description>
                <Question>
                    <TranslatedText xml:lang="en">N/A</TranslatedText>
                </Question>
                <Alias Context="sdtmigDatasetMappingTarget_0" Name="SUPPQUAL.QVAL"/>
                <mdr:Prompt>
                    <TranslatedText xml:lang="en">N/A</TranslatedText>
                </mdr:Prompt>
                <mdr:ImplementationNotes>
                    <TranslatedText xml:lang="en">This field does not typically appear on the CRF.
                        This is populated through the sponsor's coding process.</TranslatedText>
                </mdr:ImplementationNotes>
                <mdr:MappingInstructions>
                    <TranslatedText xml:lang="en">This does not map directly to an SDTMIG variable.
                        This information could be submitted in a SUPPCM dataset as the value of
                        SUPPCM.QVAL where SUPPCM.QNAM="CMATC3" and SUPPCM.QLABEL="ATC Level 3
                        Description". Sponsors should include an Origin column in the SUPPQ dataset
                        to indicate that the data was "ASSIGNED". Refer to the current SDTM and
                        SDTMIG for instructions on placement of non-standard variables in SDTM
                        domains.</TranslatedText>
                </mdr:MappingInstructions>
                <mdr:Definition>
                    <TranslatedText xml:lang="en">Dictionary text description of the third level of
                        hierarchy within the Anatomical Therapeutic Chemical Classification System.
                        Indicates the therapeutic/pharmacological subgroup.</TranslatedText>
                </mdr:Definition>
            </ItemDef>
            <ItemDef DataType="double" Name="CMATC3CD" OID="IT.CM.CMATC3CD" mdr:Core="O"
                mdr:SubmissionDataType="Num">
                <Description>
                    <TranslatedText xml:lang="en">ATC Level 3 Code</TranslatedText>
                </Description>
                <Question>
                    <TranslatedText xml:lang="en">N/A</TranslatedText>
                </Question>
                <Alias Context="sdtmigDatasetMappingTarget_0" Name="SUPPQUAL.QVAL"/>
                <mdr:Prompt>
                    <TranslatedText xml:lang="en">N/A</TranslatedText>
                </mdr:Prompt>
                <mdr:ImplementationNotes>
                    <TranslatedText xml:lang="en">This field does not typically appear on the CRF.
                        This is populated through the sponsor's coding process.</TranslatedText>
                </mdr:ImplementationNotes>
                <mdr:MappingInstructions>
                    <TranslatedText xml:lang="en">This does not map directly to an SDTMIG variable.
                        This information could be submitted in a SUPPCM dataset as the value of
                        SUPPCM.QVAL where SUPPCM.QNAM="CMATC3CD" and SUPPCM.QLABEL="ATC Level 3
                        Code". Sponsors should include an Origin column in the SUPPQ dataset to
                        indicate that the data was "ASSIGNED".</TranslatedText>
                </mdr:MappingInstructions>
                <mdr:Definition>
                    <TranslatedText xml:lang="en">Dictionary code denoting the third level of
                        hierarchy within the Anatomical Therapeutic Chemical Classification System.
                        Indicates the therapeutic/pharmacological subgroup.</TranslatedText>
                </mdr:Definition>
            </ItemDef>
            <ItemDef DataType="text" Name="CMATC4" OID="IT.CM.CMATC4" mdr:Core="O"
                mdr:SubmissionDataType="Char">
                <Description>
                    <TranslatedText xml:lang="en">ATC Level 4 Description</TranslatedText>
                </Description>
                <Question>
                    <TranslatedText xml:lang="en">N/A</TranslatedText>
                </Question>
                <Alias Context="sdtmigDatasetMappingTarget_0" Name="SUPPQUAL.QVAL"/>
                <mdr:Prompt>
                    <TranslatedText xml:lang="en">N/A</TranslatedText>
                </mdr:Prompt>
                <mdr:ImplementationNotes>
                    <TranslatedText xml:lang="en">This field does not typically appear on the CRF.
                        This is populated through the sponsor's coding process.</TranslatedText>
                </mdr:ImplementationNotes>
                <mdr:MappingInstructions>
                    <TranslatedText xml:lang="en">This does not map directly to an SDTMIG variable.
                        This information could be submitted in a SUPPCM dataset as the value of
                        SUPPCM.QVAL where SUPPCM.QNAM="CMATC4" and SUPPCM.QLABEL="ATC Level 4
                        Description". Sponsors should include an Origin column in the SUPPQ dataset
                        to indicate that the data was "ASSIGNED". Refer to the current SDTM and
                        SDTMIG for instructions on placement of non-standard variables in SDTM
                        domains.</TranslatedText>
                </mdr:MappingInstructions>
                <mdr:Definition>
                    <TranslatedText xml:lang="en">Dictionary text description of the fourth level of
                        hierarchy within the Anatomical Therapeutic Chemical Classification System.
                        Indicates the chemical/therapeutic/pharmacological
                        subgroup.</TranslatedText>
                </mdr:Definition>
            </ItemDef>
            <ItemDef DataType="double" Name="CMATC4CD" OID="IT.CM.CMATC4CD" mdr:Core="O"
                mdr:SubmissionDataType="Num">
                <Description>
                    <TranslatedText xml:lang="en">ATC Level 4 Code</TranslatedText>
                </Description>
                <Question>
                    <TranslatedText xml:lang="en">N/A</TranslatedText>
                </Question>
                <Alias Context="sdtmigDatasetMappingTarget_0" Name="SUPPQUAL.QVAL"/>
                <mdr:Prompt>
                    <TranslatedText xml:lang="en">N/A</TranslatedText>
                </mdr:Prompt>
                <mdr:ImplementationNotes>
                    <TranslatedText xml:lang="en">This field does not typically appear on the CRF.
                        This is populated through the sponsor's coding process.</TranslatedText>
                </mdr:ImplementationNotes>
                <mdr:MappingInstructions>
                    <TranslatedText xml:lang="en">This does not map directly to an SDTMIG variable.
                        This information could be submitted in a SUPPCM dataset as the value of
                        SUPPCM.QVAL where SUPPCM.QNAM="CMATC4CD" and SUPPCM.QLABEL="ATC Level 4
                        Code". Sponsors should include an Origin column in the SUPPQ dataset to
                        indicate that the data was "ASSIGNED".</TranslatedText>
                </mdr:MappingInstructions>
                <mdr:Definition>
                    <TranslatedText xml:lang="en">Dictionary code denoting the fourth level of
                        hierarchy within the Anatomical Therapeutic Chemical Classification System.
                        Indicates the chemical/therapeutic/pharmacological
                        subgroup.</TranslatedText>
                </mdr:Definition>
            </ItemDef>
            <ItemDef DataType="text" Name="CMATC5" OID="IT.CM.CMATC5" mdr:Core="O"
                mdr:SubmissionDataType="Char">
                <Description>
                    <TranslatedText xml:lang="en">ATC Level 5 Description</TranslatedText>
                </Description>
                <Question>
                    <TranslatedText xml:lang="en">N/A</TranslatedText>
                </Question>
                <Alias Context="sdtmigDatasetMappingTarget_0" Name="SUPPQUAL.QVAL"/>
                <mdr:Prompt>
                    <TranslatedText xml:lang="en">N/A</TranslatedText>
                </mdr:Prompt>
                <mdr:ImplementationNotes>
                    <TranslatedText xml:lang="en">This field does not typically appear on the CRF.
                        This is populated through the sponsor's coding process.</TranslatedText>
                </mdr:ImplementationNotes>
                <mdr:MappingInstructions>
                    <TranslatedText xml:lang="en">This does not map directly to an SDTMIG variable.
                        This information could be submitted in a SUPPCM dataset as the value of
                        SUPPCM.QVAL where SUPPCM.QNAM="CMATC5" and SUPPCM.QLABEL="ATC Level 5
                        Description". Sponsors should include an Origin column in the SUPPQ dataset
                        to indicate that the data was "ASSIGNED". Refer to the current SDTM and
                        SDTMIG for instructions on placement of non-standard variables in SDTM
                        domains.</TranslatedText>
                </mdr:MappingInstructions>
                <mdr:Definition>
                    <TranslatedText xml:lang="en">Dictionary text description of the fifth level of
                        hierarchy within the Anatomical Therapeutic Chemical Classification System.
                        Indicates the chemical substance.</TranslatedText>
                </mdr:Definition>
            </ItemDef>
            <ItemDef DataType="double" Name="CMATC5CD" OID="IT.CM.CMATC5CD" mdr:Core="O"
                mdr:SubmissionDataType="Num">
                <Description>
                    <TranslatedText xml:lang="en">ATC Level 5 Code</TranslatedText>
                </Description>
                <Question>
                    <TranslatedText xml:lang="en">N/A</TranslatedText>
                </Question>
                <Alias Context="sdtmigDatasetMappingTarget_0" Name="SUPPQUAL.QVAL"/>
                <mdr:Prompt>
                    <TranslatedText xml:lang="en">N/A</TranslatedText>
                </mdr:Prompt>
                <mdr:ImplementationNotes>
                    <TranslatedText xml:lang="en">This field does not typically appear on the CRF.
                        This is populated through the sponsor's coding process.</TranslatedText>
                </mdr:ImplementationNotes>
                <mdr:MappingInstructions>
                    <TranslatedText xml:lang="en">This does not map directly to an SDTMIG variable.
                        This information could be submitted in a SUPPCM dataset as the value of
                        SUPPCM.QVAL where SUPPCM.QNAM="CMATC5CD" and SUPPCM.QLABEL="ATC Level 5
                        Code". Sponsors should include an Origin column in the SUPPQ dataset to
                        indicate that the data was "ASSIGNED".</TranslatedText>
                </mdr:MappingInstructions>
                <mdr:Definition>
                    <TranslatedText xml:lang="en">Dictionary code denoting the fifth level of
                        hierarchy within the Anatomical Therapeutic Chemical Classification System.
                        Indicates the chemical substance.</TranslatedText>
                </mdr:Definition>
            </ItemDef>
            <ItemDef DataType="text" Name="STUDYID" OID="IT.EC.STUDYID" mdr:Core="HR"
                mdr:SubmissionDataType="Char">
                <Description>
                    <TranslatedText xml:lang="en">Study Identifier</TranslatedText>
                </Description>
                <Question>
                    <TranslatedText xml:lang="en">What is the study identifier?</TranslatedText>
                </Question>
                <Alias Context="sdtmigDatasetMappingTarget_0" Name="EC.STUDYID"/>
                <mdr:Prompt>
                    <TranslatedText xml:lang="en">[Protocol/Study]</TranslatedText>
                </mdr:Prompt>
                <mdr:ImplementationNotes>
                    <TranslatedText xml:lang="en">While this field is not typically captured on a
                        CRF, it should be displayed clearly on the CRF and/or the EDC system. This
                        field can be included into the database or populated during SDTM-based
                        dataset creation before submission.</TranslatedText>
                </mdr:ImplementationNotes>
                <mdr:MappingInstructions>
                    <TranslatedText xml:lang="en">Maps directly to the SDTMIG variable listed in the
                        column with the heading "SDTMIG Target".</TranslatedText>
                </mdr:MappingInstructions>
                <mdr:Definition>
                    <TranslatedText xml:lang="en">A unique identifier for a study.</TranslatedText>
                </mdr:Definition>
            </ItemDef>
            <ItemDef DataType="text" Name="SITEID" OID="IT.EC.SITEID" mdr:Core="HR"
                mdr:SubmissionDataType="Char">
                <Description>
                    <TranslatedText xml:lang="en">Study Site Identifier</TranslatedText>
                </Description>
                <Question>
                    <TranslatedText xml:lang="en">What is the site identifier?</TranslatedText>
                </Question>
                <Alias Context="sdtmigDatasetMappingTarget_0" Name="DM.SITEID"/>
                <mdr:Prompt>
                    <TranslatedText xml:lang="en">Site (Identifier)</TranslatedText>
                </mdr:Prompt>
                <mdr:ImplementationNotes>
                    <TranslatedText xml:lang="en">Paper: This is typically preprinted in the header
                        of each CRF page for single site studies. For studies with multiple sites,
                        this field may be left blank so that the number can be recorded by the site,
                        or it may be preprinted for the CRFs that are shipped to each site. EDC:
                        This should be prepopulated.</TranslatedText>
                </mdr:ImplementationNotes>
                <mdr:MappingInstructions>
                    <TranslatedText xml:lang="en">Maps directly to the SDTMIG variable listed in the
                        column with the heading "SDTMIG Target".</TranslatedText>
                </mdr:MappingInstructions>
                <mdr:Definition>
                    <TranslatedText xml:lang="en">A unique identifier for a site within a
                        study.</TranslatedText>
                </mdr:Definition>
            </ItemDef>
            <ItemDef DataType="text" Name="SUBJID" OID="IT.EC.SUBJID" mdr:Core="HR"
                mdr:SubmissionDataType="Char">
                <Description>
                    <TranslatedText xml:lang="en">Subject Identifier for the Study</TranslatedText>
                </Description>
                <Question>
                    <TranslatedText xml:lang="en">What is the subject identifier?</TranslatedText>
                </Question>
                <Alias Context="sdtmigDatasetMappingTarget_0" Name="DM.SUBJID"/>
                <mdr:Prompt>
                    <TranslatedText xml:lang="en">Subject</TranslatedText>
                </mdr:Prompt>
                <mdr:CRFCompletionInstructions>
                    <TranslatedText xml:lang="en">Record the identifier for the
                        subject.</TranslatedText>
                </mdr:CRFCompletionInstructions>
