<?xml version='1.0' encoding='utf8'?>
<ODM AsOfDateTime="2019-11-01T00:00:00+00:00" CreationDateTime="2021-06-17T15:30:56.250720+00:00"
    FileOID="ODM.CDASHIGv2.1.2019-11-01" FileType="Snapshot" Granularity="Metadata"
    ODMVersion="1.3.2" Originator="CDISC LIBRARY" SourceSystem="cdisc_library_api"
    SourceSystemVersion="1.0" mdr:LibraryXMLVersion="1.0.0" xmlns="http://www.cdisc.org/ns/odm/v1.3"
    xmlns:mdr="http://www.cdisc.org/ns/library-xml/v1.0" xmlns:xlink="http://www.w3.org/1999/xlink">
    <Study OID="STUDY.CDASHIG.v2.1">
        <GlobalVariables>
            <StudyName>CDASHIG v2.1</StudyName>
            <StudyDescription>Clinical Data Acquisition Standards Harmonization Implementation Guide
                for Human Clinical Trials Version 2.1</StudyDescription>
            <ProtocolName>CDISC Standard Publication</ProtocolName>
        </GlobalVariables>
        <MetaDataVersion Name="CDASHIG v2.1 Metadata" OID="MDV.CDASHIG.v2.1"
            mdr:DatePublished="2019-11-01" mdr:Status="Final">
            <ItemGroupDef Domain="CO" Name="CO" OID="IGD.CO" Purpose="Data Collection"
                Repeating="No">
                <Description>
                    <TranslatedText xml:lang="en">Comments</TranslatedText>
                </Description>
                <ItemRef ItemOID="IT.CO.STUDYID" Mandatory="No" OrderNumber="1"/>
                <ItemRef ItemOID="IT.CO.SITEID" Mandatory="No" OrderNumber="2"/>
                <ItemRef ItemOID="IT.CO.SUBJID" Mandatory="No" OrderNumber="3"/>
                <ItemRef ItemOID="IT.CO.COVAL" Mandatory="No" OrderNumber="4"/>
                <mdr:Class Name="SPECIAL PURPOSE"/>
            </ItemGroupDef>
            <ItemGroupDef Domain="DM" Name="DM" OID="IGD.DM" Purpose="Data Collection"
                Repeating="No">
                <Description>
                    <TranslatedText xml:lang="en">Demographics</TranslatedText>
                </Description>
                <ItemRef ItemOID="IT.DM.STUDYID" Mandatory="No" OrderNumber="1"/>
                <ItemRef ItemOID="IT.DM.SITEID" Mandatory="No" OrderNumber="2"/>
                <ItemRef ItemOID="IT.DM.SUBJID" Mandatory="No" OrderNumber="3"/>
                <ItemRef ItemOID="IT.DM.BRTHDAT" Mandatory="No" OrderNumber="4"/>
                <ItemRef ItemOID="IT.DM.BRTHDD" Mandatory="No" OrderNumber="5"/>
                <ItemRef ItemOID="IT.DM.BRTHMO" Mandatory="No" OrderNumber="6"/>
                <ItemRef ItemOID="IT.DM.BRTHYY" Mandatory="No" OrderNumber="7"/>
                <ItemRef ItemOID="IT.DM.BRTHTIM" Mandatory="No" OrderNumber="8"/>
                <ItemRef ItemOID="IT.DM.AGE" Mandatory="No" OrderNumber="9"/>
                <ItemRef ItemOID="IT.DM.AGEU" Mandatory="No" OrderNumber="10"/>
                <ItemRef ItemOID="IT.DM.DMDAT" Mandatory="No" OrderNumber="11"/>
                <ItemRef ItemOID="IT.DM.SEX" Mandatory="No" OrderNumber="12"/>
                <ItemRef ItemOID="IT.DM.ETHNIC" Mandatory="No" OrderNumber="13"/>
                <ItemRef ItemOID="IT.DM.CETHNIC" Mandatory="No" OrderNumber="14"/>
                <ItemRef ItemOID="IT.DM.RACE" Mandatory="No" OrderNumber="15"/>
                <ItemRef ItemOID="IT.DM.CRACE" Mandatory="No" OrderNumber="16"/>
                <ItemRef ItemOID="IT.DM.RACEOTH" Mandatory="No" OrderNumber="17"/>
                <mdr:Class Name="SPECIAL PURPOSE"/>
            </ItemGroupDef>
            <ItemGroupDef Domain="CM" Name="CM" OID="IGD.CM" Purpose="Data Collection"
                Repeating="No">
                <Description>
                    <TranslatedText xml:lang="en">Concomitant Medications</TranslatedText>
                </Description>
                <ItemRef ItemOID="IT.CM.STUDYID" Mandatory="No" OrderNumber="1"/>
                <ItemRef ItemOID="IT.CM.SITEID" Mandatory="No" OrderNumber="2"/>
                <ItemRef ItemOID="IT.CM.SUBJID" Mandatory="No" OrderNumber="3"/>
                <ItemRef ItemOID="IT.CM.CMCAT" Mandatory="No" OrderNumber="4"/>
                <ItemRef ItemOID="IT.CM.CMSCAT" Mandatory="No" OrderNumber="5"/>
                <ItemRef ItemOID="IT.CM.CMYN" Mandatory="No" OrderNumber="6"/>
                <ItemRef ItemOID="IT.CM.CMSPID" Mandatory="No" OrderNumber="7"/>
                <ItemRef ItemOID="IT.CM.CMTRT" Mandatory="No" OrderNumber="8"/>
                <ItemRef ItemOID="IT.CM.CMPRESP" Mandatory="No" OrderNumber="9"/>
                <ItemRef ItemOID="IT.CM.CMOCCUR" Mandatory="No" OrderNumber="10"/>
                <ItemRef ItemOID="IT.CM.CMINGRD" Mandatory="No" OrderNumber="11"/>
                <ItemRef ItemOID="IT.CM.CMINDC" Mandatory="No" OrderNumber="12"/>
                <ItemRef ItemOID="IT.CM.CMAENO" Mandatory="No" OrderNumber="13"/>
                <ItemRef ItemOID="IT.CM.CMMHNO" Mandatory="No" OrderNumber="14"/>
                <ItemRef ItemOID="IT.CM.CMDOSE" Mandatory="No" OrderNumber="15"/>
                <ItemRef ItemOID="IT.CM.CMDSTXT" Mandatory="No" OrderNumber="16"/>
                <ItemRef ItemOID="IT.CM.CMDOSTOT" Mandatory="No" OrderNumber="17"/>
                <ItemRef ItemOID="IT.CM.CMDOSU" Mandatory="No" OrderNumber="18"/>
                <ItemRef ItemOID="IT.CM.CMDOSFRM" Mandatory="No" OrderNumber="19"/>
                <ItemRef ItemOID="IT.CM.CMDOSFRQ" Mandatory="No" OrderNumber="20"/>
                <ItemRef ItemOID="IT.CM.CMROUTE" Mandatory="No" OrderNumber="21"/>
                <ItemRef ItemOID="IT.CM.CMSTDAT" Mandatory="No" OrderNumber="22"/>
                <ItemRef ItemOID="IT.CM.CMSTTIM" Mandatory="No" OrderNumber="23"/>
                <ItemRef ItemOID="IT.CM.CMPRIOR" Mandatory="No" OrderNumber="24"/>
                <ItemRef ItemOID="IT.CM.CMONGO" Mandatory="No" OrderNumber="25"/>
                <ItemRef ItemOID="IT.CM.CMENDAT" Mandatory="No" OrderNumber="26"/>
                <ItemRef ItemOID="IT.CM.CMENTIM" Mandatory="No" OrderNumber="27"/>
                <ItemRef ItemOID="IT.CM.CMDECOD" Mandatory="No" OrderNumber="28"/>
                <ItemRef ItemOID="IT.CM.CMCLAS" Mandatory="No" OrderNumber="29"/>
                <ItemRef ItemOID="IT.CM.CMCLASCD" Mandatory="No" OrderNumber="30"/>
                <ItemRef ItemOID="IT.CM.CMATC1" Mandatory="No" OrderNumber="31"/>
                <ItemRef ItemOID="IT.CM.CMATC1CD" Mandatory="No" OrderNumber="32"/>
                <ItemRef ItemOID="IT.CM.CMATC2" Mandatory="No" OrderNumber="33"/>
                <ItemRef ItemOID="IT.CM.CMATC2CD" Mandatory="No" OrderNumber="34"/>
                <ItemRef ItemOID="IT.CM.CMATC3" Mandatory="No" OrderNumber="35"/>
                <ItemRef ItemOID="IT.CM.CMATC3CD" Mandatory="No" OrderNumber="36"/>
                <ItemRef ItemOID="IT.CM.CMATC4" Mandatory="No" OrderNumber="37"/>
                <ItemRef ItemOID="IT.CM.CMATC4CD" Mandatory="No" OrderNumber="38"/>
                <ItemRef ItemOID="IT.CM.CMATC5" Mandatory="No" OrderNumber="39"/>
                <ItemRef ItemOID="IT.CM.CMATC5CD" Mandatory="No" OrderNumber="40"/>
                <mdr:Class Name="INTERVENTIONS"/>
            </ItemGroupDef>
            <ItemGroupDef Domain="EC" Name="EC" OID="IGD.EC" Purpose="Data Collection"
                Repeating="No">
                <Description>
                    <TranslatedText xml:lang="en">Exposure as Collected</TranslatedText>
                </Description>
                <ItemRef ItemOID="IT.EC.STUDYID" Mandatory="No" OrderNumber="1"/>
                <ItemRef ItemOID="IT.EC.SITEID" Mandatory="No" OrderNumber="2"/>
                <ItemRef ItemOID="IT.EC.SUBJID" Mandatory="No" OrderNumber="3"/>
                <ItemRef ItemOID="IT.EC.EPOCH" Mandatory="No" OrderNumber="4"/>
                <ItemRef ItemOID="IT.EC.ECYN" Mandatory="No" OrderNumber="5"/>
                <ItemRef ItemOID="IT.EC.ECCAT" Mandatory="No" OrderNumber="6"/>
                <ItemRef ItemOID="IT.EC.ECSCAT" Mandatory="No" OrderNumber="7"/>
                <ItemRef ItemOID="IT.EC.ECTRT" Mandatory="No" OrderNumber="8"/>
                <ItemRef ItemOID="IT.EC.ECPRESP" Mandatory="No" OrderNumber="9"/>
                <ItemRef ItemOID="IT.EC.ECOCCUR" Mandatory="No" OrderNumber="10"/>
                <ItemRef ItemOID="IT.EC.ECREASOC" Mandatory="No" OrderNumber="11"/>
                <ItemRef ItemOID="IT.EC.ECMOOD" Mandatory="No" OrderNumber="12"/>
                <ItemRef ItemOID="IT.EC.ECREFID" Mandatory="No" OrderNumber="13"/>
                <ItemRef ItemOID="IT.EC.ECLOT" Mandatory="No" OrderNumber="14"/>
                <ItemRef ItemOID="IT.EC.ECFAST" Mandatory="No" OrderNumber="15"/>
                <ItemRef ItemOID="IT.EC.ECDOSFRM" Mandatory="No" OrderNumber="16"/>
                <ItemRef ItemOID="IT.EC.ECSTDAT" Mandatory="No" OrderNumber="17"/>
                <ItemRef ItemOID="IT.EC.ECSTTIM" Mandatory="No" OrderNumber="18"/>
                <ItemRef ItemOID="IT.EC.ECENDAT" Mandatory="No" OrderNumber="19"/>
                <ItemRef ItemOID="IT.EC.ECENTIM" Mandatory="No" OrderNumber="20"/>
                <ItemRef ItemOID="IT.EC.ECDSTXT" Mandatory="No" OrderNumber="21"/>
                <ItemRef ItemOID="IT.EC.ECDOSU" Mandatory="No" OrderNumber="22"/>
                <ItemRef ItemOID="IT.EC.ECDOSFRQ" Mandatory="No" OrderNumber="23"/>
                <ItemRef ItemOID="IT.EC.ECROUTE" Mandatory="No" OrderNumber="24"/>
                <ItemRef ItemOID="IT.EC.ECDOSRGM" Mandatory="No" OrderNumber="25"/>
                <ItemRef ItemOID="IT.EC.ECDOSADJ" Mandatory="No" OrderNumber="26"/>
                <ItemRef ItemOID="IT.EC.ECADJ" Mandatory="No" OrderNumber="27"/>
                <ItemRef ItemOID="IT.EC.ECITRPYN" Mandatory="No" OrderNumber="28"/>
                <ItemRef ItemOID="IT.EC.ECCINTD" Mandatory="No" OrderNumber="29"/>
                <ItemRef ItemOID="IT.EC.ECCINTDU" Mandatory="No" OrderNumber="29"/>
                <ItemRef ItemOID="IT.EC.ECLOC" Mandatory="No" OrderNumber="30"/>
                <ItemRef ItemOID="IT.EC.ECLAT" Mandatory="No" OrderNumber="31"/>
                <ItemRef ItemOID="IT.EC.ECDIR" Mandatory="No" OrderNumber="32"/>
                <ItemRef ItemOID="IT.EC.ECVAMT" Mandatory="No" OrderNumber="33"/>
                <ItemRef ItemOID="IT.EC.ECVAMTU" Mandatory="No" OrderNumber="34"/>
                <ItemRef ItemOID="IT.EC.ECFLRT" Mandatory="No" OrderNumber="35"/>
                <ItemRef ItemOID="IT.EC.ECFLRTU" Mandatory="No" OrderNumber="36"/>
                <ItemRef ItemOID="IT.EC.ECTPT" Mandatory="No" OrderNumber="37"/>
                <ItemRef ItemOID="IT.EC.ECTRTCMP" Mandatory="No" OrderNumber="38"/>
                <mdr:Class Name="INTERVENTIONS"/>
            </ItemGroupDef>
            <ItemGroupDef Domain="EX" Name="EX" OID="IGD.EX" Purpose="Data Collection"
                Repeating="No">
                <Description>
                    <TranslatedText xml:lang="en">Exposure</TranslatedText>
                </Description>
                <ItemRef ItemOID="IT.EX.STUDYID" Mandatory="No" OrderNumber="1"/>
                <ItemRef ItemOID="IT.EX.SITEID" Mandatory="No" OrderNumber="2"/>
                <ItemRef ItemOID="IT.EX.SUBJID" Mandatory="No" OrderNumber="3"/>
                <ItemRef ItemOID="IT.EX.EPOCH" Mandatory="No" OrderNumber="4"/>
                <ItemRef ItemOID="IT.EX.EXYN" Mandatory="No" OrderNumber="5"/>
                <ItemRef ItemOID="IT.EX.EXCAT" Mandatory="No" OrderNumber="6"/>
                <ItemRef ItemOID="IT.EX.EXSCAT" Mandatory="No" OrderNumber="7"/>
                <ItemRef ItemOID="IT.EX.EXTRT" Mandatory="No" OrderNumber="8"/>
                <ItemRef ItemOID="IT.EX.EXREFID" Mandatory="No" OrderNumber="9"/>
                <ItemRef ItemOID="IT.EX.EXLOT" Mandatory="No" OrderNumber="10"/>
                <ItemRef ItemOID="IT.EX.EXFAST" Mandatory="No" OrderNumber="11"/>
                <ItemRef ItemOID="IT.EX.EXDOSFRM" Mandatory="No" OrderNumber="12"/>
                <ItemRef ItemOID="IT.EX.EXSTDAT" Mandatory="No" OrderNumber="13"/>
                <ItemRef ItemOID="IT.EX.EXSTTIM" Mandatory="No" OrderNumber="14"/>
                <ItemRef ItemOID="IT.EX.EXENDAT" Mandatory="No" OrderNumber="15"/>
                <ItemRef ItemOID="IT.EX.EXENTIM" Mandatory="No" OrderNumber="16"/>
                <ItemRef ItemOID="IT.EX.EXDSTXT" Mandatory="No" OrderNumber="17"/>
                <ItemRef ItemOID="IT.EX.EXDOSU" Mandatory="No" OrderNumber="18"/>
                <ItemRef ItemOID="IT.EX.EXDOSFRQ" Mandatory="No" OrderNumber="19"/>
                <ItemRef ItemOID="IT.EX.EXROUTE" Mandatory="No" OrderNumber="20"/>
                <ItemRef ItemOID="IT.EX.EXDOSRGM" Mandatory="No" OrderNumber="21"/>
                <ItemRef ItemOID="IT.EX.EXDOSADJ" Mandatory="No" OrderNumber="22"/>
                <ItemRef ItemOID="IT.EX.EXADJ" Mandatory="No" OrderNumber="23"/>
                <ItemRef ItemOID="IT.EX.EXITRPYN" Mandatory="No" OrderNumber="24"/>
                <ItemRef ItemOID="IT.EX.EXCINTD" Mandatory="No" OrderNumber="25"/>
                <ItemRef ItemOID="IT.EX.EXCINTDU" Mandatory="No" OrderNumber="26"/>
                <ItemRef ItemOID="IT.EX.EXLOC" Mandatory="No" OrderNumber="27"/>
                <ItemRef ItemOID="IT.EX.EXVAMT" Mandatory="No" OrderNumber="28"/>
                <ItemRef ItemOID="IT.EX.EXVAMTU" Mandatory="No" OrderNumber="29"/>
                <ItemRef ItemOID="IT.EX.EXFLRT" Mandatory="No" OrderNumber="30"/>
                <ItemRef ItemOID="IT.EX.EXFLRTU" Mandatory="No" OrderNumber="31"/>
                <ItemRef ItemOID="IT.EX.EXTPT" Mandatory="No" OrderNumber="32"/>
                <ItemRef ItemOID="IT.EX.EXTRTCMP" Mandatory="No" OrderNumber="33"/>
                <ItemRef ItemOID="IT.EX.EXLAT" Mandatory="No" OrderNumber="34"/>
                <ItemRef ItemOID="IT.EX.EXDIR" Mandatory="No" OrderNumber="35"/>
                <mdr:Class Name="INTERVENTIONS"/>
            </ItemGroupDef>
            <ItemGroupDef Domain="PR" Name="PR" OID="IGD.PR" Purpose="Data Collection"
                Repeating="No">
                <Description>
                    <TranslatedText xml:lang="en">Procedures</TranslatedText>
                </Description>
                <ItemRef ItemOID="IT.PR.STUDYID" Mandatory="No" OrderNumber="1"/>
                <ItemRef ItemOID="IT.PR.SITEID" Mandatory="No" OrderNumber="2"/>
                <ItemRef ItemOID="IT.PR.SUBJID" Mandatory="No" OrderNumber="3"/>
                <ItemRef ItemOID="IT.PR.PRYN" Mandatory="No" OrderNumber="4"/>
                <ItemRef ItemOID="IT.PR.PRCAT" Mandatory="No" OrderNumber="5"/>
                <ItemRef ItemOID="IT.PR.PRSCAT" Mandatory="No" OrderNumber="6"/>
                <ItemRef ItemOID="IT.PR.PRSPID" Mandatory="No" OrderNumber="7"/>
                <ItemRef ItemOID="IT.PR.PRTRT" Mandatory="No" OrderNumber="8"/>
                <ItemRef ItemOID="IT.PR.PRDECOD" Mandatory="No" OrderNumber="9"/>
                <ItemRef ItemOID="IT.PR.PRMODIFY" Mandatory="No" OrderNumber="10"/>
                <ItemRef ItemOID="IT.PR.PRPRESP" Mandatory="No" OrderNumber="11"/>
                <ItemRef ItemOID="IT.PR.PROCCUR" Mandatory="No" OrderNumber="12"/>
                <ItemRef ItemOID="IT.PR.PRREASOC" Mandatory="No" OrderNumber="13"/>
                <ItemRef ItemOID="IT.PR.PRREASND" Mandatory="No" OrderNumber="14"/>
                <ItemRef ItemOID="IT.PR.PRPRIOR" Mandatory="No" OrderNumber="15"/>
                <ItemRef ItemOID="IT.PR.PRSTDAT" Mandatory="No" OrderNumber="16"/>
                <ItemRef ItemOID="IT.PR.PRONGO" Mandatory="No" OrderNumber="17"/>
                <ItemRef ItemOID="IT.PR.PRENDAT" Mandatory="No" OrderNumber="18"/>
                <ItemRef ItemOID="IT.PR.PRINDC" Mandatory="No" OrderNumber="19"/>
                <ItemRef ItemOID="IT.PR.PRAENO" Mandatory="No" OrderNumber="20"/>
                <ItemRef ItemOID="IT.PR.PRMHNO" Mandatory="No" OrderNumber="21"/>
                <ItemRef ItemOID="IT.PR.PRDSTXT" Mandatory="No" OrderNumber="22"/>
                <ItemRef ItemOID="IT.PR.PRDOSU" Mandatory="No" OrderNumber="23"/>
                <ItemRef ItemOID="IT.PR.PRDOSFRQ" Mandatory="No" OrderNumber="24"/>
                <ItemRef ItemOID="IT.PR.PRROUTE" Mandatory="No" OrderNumber="25"/>
                <ItemRef ItemOID="IT.PR.PRLOC" Mandatory="No" OrderNumber="26"/>
                <ItemRef ItemOID="IT.PR.PRLAT" Mandatory="No" OrderNumber="27"/>
                <ItemRef ItemOID="IT.PR.PRDIR" Mandatory="No" OrderNumber="28"/>
                <ItemRef ItemOID="IT.PR.PRPORTOT" Mandatory="No" OrderNumber="29"/>
                <ItemRef ItemOID="IT.PR.PRFAST" Mandatory="No" OrderNumber="30"/>
                <ItemRef ItemOID="IT.PR.PRDOSRGM" Mandatory="No" OrderNumber="31"/>
                <ItemRef ItemOID="IT.PR.PRDOSADJ" Mandatory="No" OrderNumber="32"/>
                <ItemRef ItemOID="IT.PR.PRADJ" Mandatory="No" OrderNumber="33"/>
                <ItemRef ItemOID="IT.PR.PRTRTCMP" Mandatory="No" OrderNumber="34"/>
                <ItemRef ItemOID="IT.PR.PRITRPYN" Mandatory="No" OrderNumber="35"/>
                <ItemRef ItemOID="IT.PR.PRITRPRS" Mandatory="No" OrderNumber="36"/>
                <ItemRef ItemOID="IT.PR.PRCINTD" Mandatory="No" OrderNumber="37"/>
                <ItemRef ItemOID="IT.PR.PRCINTDU" Mandatory="No" OrderNumber="38"/>
                <ItemRef ItemOID="IT.PR.PRLLT" Mandatory="No" OrderNumber="39"/>
                <ItemRef ItemOID="IT.PR.PRLLTCD" Mandatory="No" OrderNumber="40"/>
                <ItemRef ItemOID="IT.PR.PRPTCD" Mandatory="No" OrderNumber="41"/>
                <ItemRef ItemOID="IT.PR.PRHLT" Mandatory="No" OrderNumber="42"/>
                <ItemRef ItemOID="IT.PR.PRHLTCD" Mandatory="No" OrderNumber="43"/>
                <ItemRef ItemOID="IT.PR.PRHLGT" Mandatory="No" OrderNumber="44"/>
                <ItemRef ItemOID="IT.PR.PRHLGTCD" Mandatory="No" OrderNumber="45"/>
                <ItemRef ItemOID="IT.PR.PRSOC" Mandatory="No" OrderNumber="46"/>
                <ItemRef ItemOID="IT.PR.PRSOCCD" Mandatory="No" OrderNumber="47"/>
                <mdr:Class Name="INTERVENTIONS"/>
            </ItemGroupDef>
            <ItemGroupDef Domain="SU" Name="SU" OID="IGD.SU" Purpose="Data Collection"
                Repeating="No">
                <Description>
                    <TranslatedText xml:lang="en">Substance Use</TranslatedText>
                </Description>
                <ItemRef ItemOID="IT.SU.STUDYID" Mandatory="No" OrderNumber="1"/>
                <ItemRef ItemOID="IT.SU.SITEID" Mandatory="No" OrderNumber="2"/>
                <ItemRef ItemOID="IT.SU.SUBJID" Mandatory="No" OrderNumber="3"/>
                <ItemRef ItemOID="IT.SU.SUTRT" Mandatory="No" OrderNumber="4"/>
                <ItemRef ItemOID="IT.SU.SUCAT" Mandatory="No" OrderNumber="5"/>
                <ItemRef ItemOID="IT.SU.SUSCAT" Mandatory="No" OrderNumber="6"/>
                <ItemRef ItemOID="IT.SU.SUPRESP" Mandatory="No" OrderNumber="7"/>
                <ItemRef ItemOID="IT.SU.SUYN" Mandatory="No" OrderNumber="8"/>
                <ItemRef ItemOID="IT.SU.SUNCF" Mandatory="No" OrderNumber="9"/>
                <ItemRef ItemOID="IT.SU.SUSPID" Mandatory="No" OrderNumber="10"/>
                <ItemRef ItemOID="IT.SU.SUREASND" Mandatory="No" OrderNumber="11"/>
                <ItemRef ItemOID="IT.SU.SUDSTXT" Mandatory="No" OrderNumber="12"/>
                <ItemRef ItemOID="IT.SU.SUDOSFRQ" Mandatory="No" OrderNumber="13"/>
                <ItemRef ItemOID="IT.SU.SUSTDAT" Mandatory="No" OrderNumber="14"/>
                <ItemRef ItemOID="IT.SU.SUENDAT" Mandatory="No" OrderNumber="15"/>
                <ItemRef ItemOID="IT.SU.SUCDUR" Mandatory="No" OrderNumber="16"/>
                <ItemRef ItemOID="IT.SU.SUCDURU" Mandatory="No" OrderNumber="17"/>
                <ItemRef ItemOID="IT.SU.SUMODIFY" Mandatory="No" OrderNumber="18"/>
                <ItemRef ItemOID="IT.SU.SUDECOD" Mandatory="No" OrderNumber="19"/>
                <mdr:Class Name="INTERVENTIONS"/>
            </ItemGroupDef>
            <ItemGroupDef Domain="AE" Name="AE" OID="IGD.AE" Purpose="Data Collection"
                Repeating="No">
                <Description>
                    <TranslatedText xml:lang="en">Adverse Events</TranslatedText>
                </Description>
                <ItemRef ItemOID="IT.AE.STUDYID" Mandatory="No" OrderNumber="1"/>
                <ItemRef ItemOID="IT.AE.SITEID" Mandatory="No" OrderNumber="2"/>
                <ItemRef ItemOID="IT.AE.SUBJID" Mandatory="No" OrderNumber="3"/>
                <ItemRef ItemOID="IT.AE.AEYN" Mandatory="No" OrderNumber="4"/>
                <ItemRef ItemOID="IT.AE.AECAT" Mandatory="No" OrderNumber="5"/>
                <ItemRef ItemOID="IT.AE.AESCAT" Mandatory="No" OrderNumber="6"/>
                <ItemRef ItemOID="IT.AE.AESPID" Mandatory="No" OrderNumber="7"/>
                <ItemRef ItemOID="IT.AE.AETERM" Mandatory="No" OrderNumber="8"/>
                <ItemRef ItemOID="IT.AE.AEOCCUR" Mandatory="No" OrderNumber="9"/>
                <ItemRef ItemOID="IT.AE.AEPRESP" Mandatory="No" OrderNumber="10"/>
                <ItemRef ItemOID="IT.AE.AESTDAT" Mandatory="No" OrderNumber="11"/>
                <ItemRef ItemOID="IT.AE.AESTTIM" Mandatory="No" OrderNumber="12"/>
                <ItemRef ItemOID="IT.AE.AELOC" Mandatory="No" OrderNumber="13"/>
                <ItemRef ItemOID="IT.AE.AELAT" Mandatory="No" OrderNumber="14"/>
                <ItemRef ItemOID="IT.AE.AEDIR" Mandatory="No" OrderNumber="15"/>
                <ItemRef ItemOID="IT.AE.AEPORTOT" Mandatory="No" OrderNumber="16"/>
                <ItemRef ItemOID="IT.AE.AEONGO" Mandatory="No" OrderNumber="17"/>
                <ItemRef ItemOID="IT.AE.AEENDAT" Mandatory="No" OrderNumber="18"/>
                <ItemRef ItemOID="IT.AE.AEENTIM" Mandatory="No" OrderNumber="19"/>
                <ItemRef ItemOID="IT.AE.AESEV" Mandatory="No" OrderNumber="20"/>
                <ItemRef ItemOID="IT.AE.AETOXGR" Mandatory="No" OrderNumber="21"/>
                <ItemRef ItemOID="IT.AE.AESER" Mandatory="No" OrderNumber="22"/>
                <ItemRef ItemOID="IT.AE.AESDTH" Mandatory="No" OrderNumber="23"/>
                <ItemRef ItemOID="IT.AE.DTHDAT" Mandatory="No" OrderNumber="24"/>
                <ItemRef ItemOID="IT.AE.AESLIFE" Mandatory="No" OrderNumber="25"/>
                <ItemRef ItemOID="IT.AE.AESHOSP" Mandatory="No" OrderNumber="26"/>
                <ItemRef ItemOID="IT.AE.AESDISAB" Mandatory="No" OrderNumber="27"/>
                <ItemRef ItemOID="IT.AE.AESCONG" Mandatory="No" OrderNumber="28"/>
                <ItemRef ItemOID="IT.AE.AESINTV" Mandatory="No" OrderNumber="29"/>
                <ItemRef ItemOID="IT.AE.AESMIE" Mandatory="No" OrderNumber="30"/>
                <ItemRef ItemOID="IT.AE.AESCAN" Mandatory="No" OrderNumber="31"/>
                <ItemRef ItemOID="IT.AE.AESOD" Mandatory="No" OrderNumber="32"/>
                <ItemRef ItemOID="IT.AE.AEREL" Mandatory="No" OrderNumber="33"/>
                <ItemRef ItemOID="IT.AE.AEACN" Mandatory="No" OrderNumber="34"/>
                <ItemRef ItemOID="IT.AE.AEACNDEV" Mandatory="No" OrderNumber="35"/>
                <ItemRef ItemOID="IT.AE.AEACNOTH" Mandatory="No" OrderNumber="36"/>
                <ItemRef ItemOID="IT.AE.AEOUT" Mandatory="No" OrderNumber="37"/>
                <ItemRef ItemOID="IT.AE.AEDIS" Mandatory="No" OrderNumber="38"/>
                <ItemRef ItemOID="IT.AE.AERLNSYN" Mandatory="No" OrderNumber="39"/>
                <ItemRef ItemOID="IT.AE.AERELNST" Mandatory="No" OrderNumber="40"/>
                <ItemRef ItemOID="IT.AE.AESI" Mandatory="No" OrderNumber="41"/>
                <ItemRef ItemOID="IT.AE.AEPATT" Mandatory="No" OrderNumber="42"/>
                <ItemRef ItemOID="IT.AE.AECONTRT" Mandatory="No" OrderNumber="43"/>
                <ItemRef ItemOID="IT.AE.AEMODIFY" Mandatory="No" OrderNumber="44"/>
                <ItemRef ItemOID="IT.AE.AEDECOD" Mandatory="No" OrderNumber="45"/>
                <ItemRef ItemOID="IT.AE.AELLT" Mandatory="No" OrderNumber="46"/>
                <ItemRef ItemOID="IT.AE.AELLTCD" Mandatory="No" OrderNumber="47"/>
                <ItemRef ItemOID="IT.AE.AEPTCD" Mandatory="No" OrderNumber="48"/>
                <ItemRef ItemOID="IT.AE.AEHLT" Mandatory="No" OrderNumber="49"/>
                <ItemRef ItemOID="IT.AE.AEHLTCD" Mandatory="No" OrderNumber="50"/>
                <ItemRef ItemOID="IT.AE.AEHLGT" Mandatory="No" OrderNumber="51"/>
                <ItemRef ItemOID="IT.AE.AEHLGTCD" Mandatory="No" OrderNumber="52"/>
                <ItemRef ItemOID="IT.AE.AESOC" Mandatory="No" OrderNumber="53"/>
                <ItemRef ItemOID="IT.AE.AESOCCD" Mandatory="No" OrderNumber="54"/>
                <ItemRef ItemOID="IT.AE.AEACNOYN" Mandatory="No" OrderNumber="55"/>
                <mdr:Class Name="EVENTS"/>
            </ItemGroupDef>
            <ItemGroupDef Domain="CE" Name="CE" OID="IGD.CE" Purpose="Data Collection"
                Repeating="No">
                <Description>
                    <TranslatedText xml:lang="en">Clinical Events</TranslatedText>
                </Description>
                <ItemRef ItemOID="IT.CE.STUDYID" Mandatory="No" OrderNumber="1"/>
                <ItemRef ItemOID="IT.CE.SITEID" Mandatory="No" OrderNumber="2"/>
                <ItemRef ItemOID="IT.CE.SUBJID" Mandatory="No" OrderNumber="3"/>
                <ItemRef ItemOID="IT.CE.CECAT" Mandatory="No" OrderNumber="4"/>
                <ItemRef ItemOID="IT.CE.CESCAT" Mandatory="No" OrderNumber="5"/>
                <ItemRef ItemOID="IT.CE.CEYN" Mandatory="No" OrderNumber="6"/>
                <ItemRef ItemOID="IT.CE.CESPID" Mandatory="No" OrderNumber="7"/>
                <ItemRef ItemOID="IT.CE.CETERM" Mandatory="No" OrderNumber="8"/>
                <ItemRef ItemOID="IT.CE.CEOCCUR" Mandatory="No" OrderNumber="9"/>
                <ItemRef ItemOID="IT.CE.CEPRESP" Mandatory="No" OrderNumber="10"/>
                <ItemRef ItemOID="IT.CE.CESTDAT" Mandatory="No" OrderNumber="11"/>
                <ItemRef ItemOID="IT.CE.CESTTIM" Mandatory="No" OrderNumber="12"/>
                <ItemRef ItemOID="IT.CE.CELOC" Mandatory="No" OrderNumber="13"/>
                <ItemRef ItemOID="IT.CE.CELAT" Mandatory="No" OrderNumber="14"/>
                <ItemRef ItemOID="IT.CE.CEDIR" Mandatory="No" OrderNumber="15"/>
                <ItemRef ItemOID="IT.CE.CEPORTOT" Mandatory="No" OrderNumber="16"/>
                <ItemRef ItemOID="IT.CE.CEONGO" Mandatory="No" OrderNumber="17"/>
                <ItemRef ItemOID="IT.CE.CEENDAT" Mandatory="No" OrderNumber="18"/>
                <ItemRef ItemOID="IT.CE.CEENTIM" Mandatory="No" OrderNumber="19"/>
                <ItemRef ItemOID="IT.CE.CESEV" Mandatory="No" OrderNumber="20"/>
                <ItemRef ItemOID="IT.CE.CETOX" Mandatory="No" OrderNumber="21"/>
                <ItemRef ItemOID="IT.CE.CETOXGR" Mandatory="No" OrderNumber="22"/>
                <ItemRef ItemOID="IT.CE.CEMODIFY" Mandatory="No" OrderNumber="23"/>
                <ItemRef ItemOID="IT.CE.CEDECOD" Mandatory="No" OrderNumber="24"/>
                <ItemRef ItemOID="IT.CE.CELLT" Mandatory="No" OrderNumber="25"/>
                <ItemRef ItemOID="IT.CE.CELLTCD" Mandatory="No" OrderNumber="26"/>
                <ItemRef ItemOID="IT.CE.CEPTCD" Mandatory="No" OrderNumber="27"/>
                <ItemRef ItemOID="IT.CE.CEHLT" Mandatory="No" OrderNumber="28"/>
                <ItemRef ItemOID="IT.CE.CEHLTCD" Mandatory="No" OrderNumber="29"/>
                <ItemRef ItemOID="IT.CE.CEHLGT" Mandatory="No" OrderNumber="30"/>
                <ItemRef ItemOID="IT.CE.CEHLGTCD" Mandatory="No" OrderNumber="31"/>
                <ItemRef ItemOID="IT.CE.CESOC" Mandatory="No" OrderNumber="32"/>
                <ItemRef ItemOID="IT.CE.CESOCCD" Mandatory="No" OrderNumber="33"/>
                <mdr:Class Name="EVENTS"/>
            </ItemGroupDef>
            <ItemGroupDef Domain="DS" Name="DS" OID="IGD.DS" Purpose="Data Collection"
                Repeating="No">
                <Description>
                    <TranslatedText xml:lang="en">Disposition</TranslatedText>
                </Description>
                <ItemRef ItemOID="IT.DS.STUDYID" Mandatory="No" OrderNumber="1"/>
                <ItemRef ItemOID="IT.DS.SITEID" Mandatory="No" OrderNumber="2"/>
                <ItemRef ItemOID="IT.DS.SUBJID" Mandatory="No" OrderNumber="3"/>
                <ItemRef ItemOID="IT.DS.DSCAT" Mandatory="No" OrderNumber="4"/>
                <ItemRef ItemOID="IT.DS.DSSCAT" Mandatory="No" OrderNumber="5"/>
                <ItemRef ItemOID="IT.DS.EPOCH" Mandatory="No" OrderNumber="6"/>
                <ItemRef ItemOID="IT.DS.DSDECOD" Mandatory="No" OrderNumber="7"/>
                <ItemRef ItemOID="IT.DS.DSTERM" Mandatory="No" OrderNumber="8"/>
                <ItemRef ItemOID="IT.DS.DSSTDAT" Mandatory="No" OrderNumber="9"/>
                <ItemRef ItemOID="IT.DS.DSSTTIM" Mandatory="No" OrderNumber="10"/>
                <ItemRef ItemOID="IT.DS.DTHDAT" Mandatory="No" OrderNumber="11"/>
                <ItemRef ItemOID="IT.DS.DSUNBLND" Mandatory="No" OrderNumber="12"/>
                <ItemRef ItemOID="IT.DS.DSCONT" Mandatory="No" OrderNumber="13"/>
                <ItemRef ItemOID="IT.DS.DSNEXT" Mandatory="No" OrderNumber="14"/>
                <mdr:Class Name="EVENTS"/>
            </ItemGroupDef>
            <ItemGroupDef Domain="DV" Name="DV" OID="IGD.DV" Purpose="Data Collection"
                Repeating="No">
                <Description>
                    <TranslatedText xml:lang="en">Protocol Deviations</TranslatedText>
                </Description>
                <ItemRef ItemOID="IT.DV.STUDYID" Mandatory="No" OrderNumber="1"/>
                <ItemRef ItemOID="IT.DV.SITEID" Mandatory="No" OrderNumber="2"/>
                <ItemRef ItemOID="IT.DV.SUBJID" Mandatory="No" OrderNumber="3"/>
                <ItemRef ItemOID="IT.DV.DVCAT" Mandatory="No" OrderNumber="4"/>
                <ItemRef ItemOID="IT.DV.DVSCAT" Mandatory="No" OrderNumber="5"/>
                <ItemRef ItemOID="IT.DV.DVYN" Mandatory="No" OrderNumber="6"/>
                <ItemRef ItemOID="IT.DV.DVDECOD" Mandatory="No" OrderNumber="7"/>
                <ItemRef ItemOID="IT.DV.DVTERM" Mandatory="No" OrderNumber="8"/>
                <ItemRef ItemOID="IT.DV.DVSTDAT" Mandatory="No" OrderNumber="9"/>
                <ItemRef ItemOID="IT.DV.DVSTTIM" Mandatory="No" OrderNumber="10"/>
                <ItemRef ItemOID="IT.DV.DVENDAT" Mandatory="No" OrderNumber="11"/>
                <ItemRef ItemOID="IT.DV.DVENTIM" Mandatory="No" OrderNumber="12"/>
                <ItemRef ItemOID="IT.DV.DVSPID" Mandatory="No" OrderNumber="13"/>
                <mdr:Class Name="EVENTS"/>
            </ItemGroupDef>
            <ItemGroupDef Domain="HO" Name="HO" OID="IGD.HO" Purpose="Data Collection"
                Repeating="No">
                <Description>
                    <TranslatedText xml:lang="en">Healthcare Encounters</TranslatedText>
                </Description>
                <ItemRef ItemOID="IT.HO.STUDYID" Mandatory="No" OrderNumber="1"/>
                <ItemRef ItemOID="IT.HO.SITEID" Mandatory="No" OrderNumber="2"/>
                <ItemRef ItemOID="IT.HO.SUBJID" Mandatory="No" OrderNumber="3"/>
                <ItemRef ItemOID="IT.HO.HOYN" Mandatory="No" OrderNumber="4"/>
                <ItemRef ItemOID="IT.HO.HOCAT" Mandatory="No" OrderNumber="5"/>
                <ItemRef ItemOID="IT.HO.HOSCAT" Mandatory="No" OrderNumber="6"/>
                <ItemRef ItemOID="IT.HO.HOOCCUR" Mandatory="No" OrderNumber="7"/>
                <ItemRef ItemOID="IT.HO.HOPRESP" Mandatory="No" OrderNumber="8"/>
                <ItemRef ItemOID="IT.HO.HOREASND" Mandatory="No" OrderNumber="9"/>
                <ItemRef ItemOID="IT.HO.HOSPID" Mandatory="No" OrderNumber="10"/>
                <ItemRef ItemOID="IT.HO.HOTERM" Mandatory="No" OrderNumber="11"/>
                <ItemRef ItemOID="IT.HO.HODECOD" Mandatory="No" OrderNumber="12"/>
                <ItemRef ItemOID="IT.HO.HOSTDAT" Mandatory="No" OrderNumber="13"/>
                <ItemRef ItemOID="IT.HO.HOSTTIM" Mandatory="No" OrderNumber="14"/>
                <ItemRef ItemOID="IT.HO.HOENDAT" Mandatory="No" OrderNumber="15"/>
                <ItemRef ItemOID="IT.HO.HOENTIM" Mandatory="No" OrderNumber="16"/>
                <ItemRef ItemOID="IT.HO.HOCDUR" Mandatory="No" OrderNumber="17"/>
                <ItemRef ItemOID="IT.HO.HOCDURU" Mandatory="No" OrderNumber="18"/>
                <ItemRef ItemOID="IT.HO.HOONGO" Mandatory="No" OrderNumber="19"/>
                <ItemRef ItemOID="IT.HO.HOREAS" Mandatory="No" OrderNumber="20"/>
                <ItemRef ItemOID="IT.HO.HOAENO" Mandatory="No" OrderNumber="21"/>
                <mdr:Class Name="EVENTS"/>
            </ItemGroupDef>
            <ItemGroupDef Domain="MH" Name="MH" OID="IGD.MH" Purpose="Data Collection"
                Repeating="No">
                <Description>
                    <TranslatedText xml:lang="en">Medical History</TranslatedText>
                </Description>
                <ItemRef ItemOID="IT.MH.STUDYID" Mandatory="No" OrderNumber="1"/>
                <ItemRef ItemOID="IT.MH.SITEID" Mandatory="No" OrderNumber="2"/>
                <ItemRef ItemOID="IT.MH.SUBJID" Mandatory="No" OrderNumber="3"/>
                <ItemRef ItemOID="IT.MH.MHYN" Mandatory="No" OrderNumber="4"/>
                <ItemRef ItemOID="IT.MH.MHCAT" Mandatory="No" OrderNumber="5"/>
                <ItemRef ItemOID="IT.MH.MHSCAT" Mandatory="No" OrderNumber="6"/>
                <ItemRef ItemOID="IT.MH.MHDAT" Mandatory="No" OrderNumber="7"/>
                <ItemRef ItemOID="IT.MH.MHSPID" Mandatory="No" OrderNumber="8"/>
                <ItemRef ItemOID="IT.MH.MHEVDTYP" Mandatory="No" OrderNumber="9"/>
                <ItemRef ItemOID="IT.MH.MHTERM" Mandatory="No" OrderNumber="10"/>
                <ItemRef ItemOID="IT.MH.MHOCCUR" Mandatory="No" OrderNumber="11"/>
                <ItemRef ItemOID="IT.MH.MHPRESP" Mandatory="No" OrderNumber="12"/>
                <ItemRef ItemOID="IT.MH.MHPRIOR" Mandatory="No" OrderNumber="13"/>
                <ItemRef ItemOID="IT.MH.MHONGO" Mandatory="No" OrderNumber="14"/>
                <ItemRef ItemOID="IT.MH.MHCTRL" Mandatory="No" OrderNumber="15"/>
                <ItemRef ItemOID="IT.MH.MHSTDAT" Mandatory="No" OrderNumber="16"/>
                <ItemRef ItemOID="IT.MH.MHENDAT" Mandatory="No" OrderNumber="17"/>
                <ItemRef ItemOID="IT.MH.MHLOC" Mandatory="No" OrderNumber="18"/>
                <ItemRef ItemOID="IT.MH.MHLAT" Mandatory="No" OrderNumber="19"/>
                <ItemRef ItemOID="IT.MH.MHDIR" Mandatory="No" OrderNumber="20"/>
                <ItemRef ItemOID="IT.MH.MHPORTOT" Mandatory="No" OrderNumber="21"/>
                <ItemRef ItemOID="IT.MH.MHMODIFY" Mandatory="No" OrderNumber="22"/>
                <ItemRef ItemOID="IT.MH.MHDECOD" Mandatory="No" OrderNumber="23"/>
                <ItemRef ItemOID="IT.MH.MHLLT" Mandatory="No" OrderNumber="24"/>
                <ItemRef ItemOID="IT.MH.MHLLTCD" Mandatory="No" OrderNumber="25"/>
                <ItemRef ItemOID="IT.MH.MHPTCD" Mandatory="No" OrderNumber="26"/>
                <ItemRef ItemOID="IT.MH.MHHLT" Mandatory="No" OrderNumber="27"/>
                <ItemRef ItemOID="IT.MH.MHHLTCD" Mandatory="No" OrderNumber="28"/>
                <ItemRef ItemOID="IT.MH.MHHLGT" Mandatory="No" OrderNumber="29"/>
                <ItemRef ItemOID="IT.MH.MHHLGTCD" Mandatory="No" OrderNumber="30"/>
                <ItemRef ItemOID="IT.MH.MHSOC" Mandatory="No" OrderNumber="31"/>
                <ItemRef ItemOID="IT.MH.MHSOCCD" Mandatory="No" OrderNumber="32"/>
                <mdr:Class Name="EVENTS"/>
            </ItemGroupDef>
            <ItemGroupDef Domain="DA" Name="DA" OID="IGD.DA" Purpose="Data Collection"
                Repeating="No">
                <Description>
                    <TranslatedText xml:lang="en">Drug Accountability</TranslatedText>
                </Description>
                <ItemRef ItemOID="IT.DA.STUDYID" Mandatory="No" OrderNumber="1"/>
                <ItemRef ItemOID="IT.DA.SITEID" Mandatory="No" OrderNumber="2"/>
                <ItemRef ItemOID="IT.DA.SUBJID" Mandatory="No" OrderNumber="3"/>
                <ItemRef ItemOID="IT.DA.VISIT" Mandatory="No" OrderNumber="4"/>
                <ItemRef ItemOID="IT.DA.VISDAT" Mandatory="No" OrderNumber="5"/>
                <ItemRef ItemOID="IT.DA.DAPERF" Mandatory="No" OrderNumber="6"/>
                <ItemRef ItemOID="IT.DA.DACAT" Mandatory="No" OrderNumber="7"/>
                <ItemRef ItemOID="IT.DA.DASCAT" Mandatory="No" OrderNumber="8"/>
                <ItemRef ItemOID="IT.DA.DADAT" Mandatory="No" OrderNumber="9"/>
                <ItemRef ItemOID="IT.DA.DAREFID" Mandatory="No" OrderNumber="10"/>
                <ItemRef ItemOID="IT.DA.DATEST" Mandatory="No" OrderNumber="11"/>
                <ItemRef ItemOID="IT.DA.DAORRES" Mandatory="No" OrderNumber="12"/>
                <ItemRef ItemOID="IT.DA.DAORRESU" Mandatory="No" OrderNumber="13"/>
                <mdr:Class Name="FINDINGS"/>
            </ItemGroupDef>
            <ItemGroupDef Domain="DD" Name="DD" OID="IGD.DD" Purpose="Data Collection"
                Repeating="No">
                <Description>
                    <TranslatedText xml:lang="en">Death Details</TranslatedText>
                </Description>
                <ItemRef ItemOID="IT.DD.STUDYID" Mandatory="No" OrderNumber="1"/>
                <ItemRef ItemOID="IT.DD.SITEID" Mandatory="No" OrderNumber="2"/>
                <ItemRef ItemOID="IT.DD.SUBJID" Mandatory="No" OrderNumber="3"/>
                <ItemRef ItemOID="IT.DD.VISIT" Mandatory="No" OrderNumber="4"/>
                <ItemRef ItemOID="IT.DD.VISDAT" Mandatory="No" OrderNumber="5"/>
                <ItemRef ItemOID="IT.DD.DDCAT" Mandatory="No" OrderNumber="6"/>
                <ItemRef ItemOID="IT.DD.DDSCAT" Mandatory="No" OrderNumber="7"/>
                <ItemRef ItemOID="IT.DD.DDYN" Mandatory="No" OrderNumber="8"/>
                <ItemRef ItemOID="IT.DD.DDDAT" Mandatory="No" OrderNumber="9"/>
                <ItemRef ItemOID="IT.DD.DDSPID" Mandatory="No" OrderNumber="10"/>
                <ItemRef ItemOID="IT.DD.DTHDAT" Mandatory="No" OrderNumber="11"/>
                <ItemRef ItemOID="IT.DD.DDTEST" Mandatory="No" OrderNumber="12"/>
                <ItemRef ItemOID="IT.DD.DDORRES" Mandatory="No" OrderNumber="13"/>
                <ItemRef ItemOID="IT.DD.DDEVAL" Mandatory="No" OrderNumber="14"/>
                <mdr:Class Name="FINDINGS"/>
            </ItemGroupDef>
            <ItemGroupDef Domain="EG" Name="EG" OID="IGD.EG" Purpose="Data Collection"
                Repeating="No">
                <Description>
                    <TranslatedText xml:lang="en">ECG</TranslatedText>
                </Description>
                <mdr:Class Name="FINDINGS"/>
            </ItemGroupDef>
            <ItemGroupDef Domain="IE" Name="IE" OID="IGD.IE" Purpose="Data Collection"
                Repeating="No">
                <Description>
                    <TranslatedText xml:lang="en">Inclusion/Exclusion Criteria Not
                        Met</TranslatedText>
                </Description>
                <ItemRef ItemOID="IT.IE.STUDYID" Mandatory="No" OrderNumber="1"/>
                <ItemRef ItemOID="IT.IE.SITEID" Mandatory="No" OrderNumber="2"/>
                <ItemRef ItemOID="IT.IE.SUBJID" Mandatory="No" OrderNumber="3"/>
                <ItemRef ItemOID="IT.IE.VISIT" Mandatory="No" OrderNumber="4"/>
                <ItemRef ItemOID="IT.IE.VISDAT" Mandatory="No" OrderNumber="5"/>
                <ItemRef ItemOID="IT.IE.IEYN" Mandatory="No" OrderNumber="6"/>
                <ItemRef ItemOID="IT.IE.IEDAT" Mandatory="No" OrderNumber="7"/>
                <ItemRef ItemOID="IT.IE.IECAT" Mandatory="No" OrderNumber="8"/>
                <ItemRef ItemOID="IT.IE.IESCAT" Mandatory="No" OrderNumber="9"/>
                <ItemRef ItemOID="IT.IE.IETESTCD" Mandatory="No" OrderNumber="10"/>
                <ItemRef ItemOID="IT.IE.IETEST" Mandatory="No" OrderNumber="11"/>
                <ItemRef ItemOID="IT.IE.IEORRES" Mandatory="No" OrderNumber="12"/>
                <mdr:Class Name="FINDINGS"/>
            </ItemGroupDef>
            <ItemGroupDef Domain="LB" Name="LB" OID="IGD.LB" Purpose="Data Collection"
                Repeating="No">
                <Description>
                    <TranslatedText xml:lang="en">Labs</TranslatedText>
                </Description>
                <mdr:Class Name="FINDINGS"/>
            </ItemGroupDef>
            <ItemGroupDef Domain="MB" Name="MB" OID="IGD.MB" Purpose="Data Collection"
                Repeating="No">
                <Description>
                    <TranslatedText xml:lang="en">Microbiology Specimen</TranslatedText>
                </Description>
                <mdr:Class Name="FINDINGS"/>
            </ItemGroupDef>
            <ItemGroupDef Domain="MI" Name="MI" OID="IGD.MI" Purpose="Data Collection"
                Repeating="No">
                <Description>
                    <TranslatedText xml:lang="en">Microscopic Findings</TranslatedText>
                </Description>
                <mdr:Class Name="FINDINGS"/>
            </ItemGroupDef>
            <ItemGroupDef Domain="MS" Name="MS" OID="IGD.MS" Purpose="Data Collection"
                Repeating="No">
                <Description>
                    <TranslatedText xml:lang="en">Microbiology Susceptibility Test</TranslatedText>
                </Description>
                <mdr:Class Name="FINDINGS"/>
            </ItemGroupDef>
            <ItemGroupDef Domain="PC" Name="PC" OID="IGD.PC" Purpose="Data Collection"
                Repeating="No">
                <Description>
                    <TranslatedText xml:lang="en">Pharmacokinetic Concentrations</TranslatedText>
                </Description>
                <mdr:Class Name="FINDINGS"/>
            </ItemGroupDef>
            <ItemGroupDef Domain="PE" Name="PE" OID="IGD.PE" Purpose="Data Collection"
                Repeating="No">
                <Description>
                    <TranslatedText xml:lang="en">Physical Examination</TranslatedText>
                </Description>
                <mdr:Class Name="FINDINGS"/>
            </ItemGroupDef>
            <ItemGroupDef Domain="RP" Name="RP" OID="IGD.RP" Purpose="Data Collection"
                Repeating="No">
                <Description>
                    <TranslatedText xml:lang="en">Reproductive System Findings</TranslatedText>
                </Description>
                <ItemRef ItemOID="IT.RP.STUDYID" Mandatory="No" OrderNumber="1"/>
                <ItemRef ItemOID="IT.RP.SITEID" Mandatory="No" OrderNumber="2"/>
                <ItemRef ItemOID="IT.RP.SUBJID" Mandatory="No" OrderNumber="3"/>
                <ItemRef ItemOID="IT.RP.VISIT" Mandatory="No" OrderNumber="4"/>
                <ItemRef ItemOID="IT.RP.VISDAT" Mandatory="No" OrderNumber="5"/>
                <ItemRef ItemOID="IT.RP.RPCAT" Mandatory="No" OrderNumber="6"/>
                <ItemRef ItemOID="IT.RP.RPSCAT" Mandatory="No" OrderNumber="7"/>
                <ItemRef ItemOID="IT.RP.RPPERF" Mandatory="No" OrderNumber="8"/>
                <ItemRef ItemOID="IT.RP.RPREASND" Mandatory="No" OrderNumber="9"/>
                <ItemRef ItemOID="IT.RP.RPYN" Mandatory="No" OrderNumber="10"/>
                <ItemRef ItemOID="IT.RP.RPSPID" Mandatory="No" OrderNumber="11"/>
                <ItemRef ItemOID="IT.RP.RPTEST" Mandatory="No" OrderNumber="12"/>
                <ItemRef ItemOID="IT.RP.RPORRES" Mandatory="No" OrderNumber="13"/>
                <ItemRef ItemOID="IT.RP.RPORRESU" Mandatory="No" OrderNumber="14"/>
                <ItemRef ItemOID="IT.RP.RPDAT" Mandatory="No" OrderNumber="15"/>
                <mdr:Class Name="FINDINGS"/>
            </ItemGroupDef>
            <ItemGroupDef Domain="RS" Name="RS" OID="IGD.RS" Purpose="Data Collection"
                Repeating="No">
                <Description>
                    <TranslatedText xml:lang="en">Disease Response</TranslatedText>
                </Description>
                <ItemRef ItemOID="IT.RS.STUDYID" Mandatory="No" OrderNumber="1"/>
                <ItemRef ItemOID="IT.RS.SITEID" Mandatory="No" OrderNumber="2"/>
                <ItemRef ItemOID="IT.RS.SUBJID" Mandatory="No" OrderNumber="3"/>
                <ItemRef ItemOID="IT.RS.VISIT" Mandatory="No" OrderNumber="4"/>
                <ItemRef ItemOID="IT.RS.VISDAT" Mandatory="No" OrderNumber="5"/>
                <ItemRef ItemOID="IT.RS.RSCAT" Mandatory="No" OrderNumber="6"/>
                <ItemRef ItemOID="IT.RS.RSSCAT" Mandatory="No" OrderNumber="7"/>
                <ItemRef ItemOID="IT.RS.RSPERF" Mandatory="No" OrderNumber="8"/>
                <ItemRef ItemOID="IT.RS.RSREASND" Mandatory="No" OrderNumber="9"/>
                <ItemRef ItemOID="IT.RS.RSEVAL" Mandatory="No" OrderNumber="10"/>
                <ItemRef ItemOID="IT.RS.RSEVALID" Mandatory="No" OrderNumber="11"/>
                <ItemRef ItemOID="IT.RS.RSLNKID" Mandatory="No" OrderNumber="12"/>
                <ItemRef ItemOID="IT.RS.RSLNKGRP" Mandatory="No" OrderNumber="13"/>
                <ItemRef ItemOID="IT.RS.RSTEST" Mandatory="No" OrderNumber="14"/>
                <ItemRef ItemOID="IT.RS.RSORRES" Mandatory="No" OrderNumber="15"/>
                <ItemRef ItemOID="IT.RS.RSORRESU" Mandatory="No" OrderNumber="16"/>
                <mdr:Class Name="FINDINGS"/>
            </ItemGroupDef>
            <ItemGroupDef Domain="SC" Name="SC" OID="IGD.SC" Purpose="Data Collection"
                Repeating="No">
                <Description>
                    <TranslatedText xml:lang="en">Subject Characteristics</TranslatedText>
                </Description>
                <ItemRef ItemOID="IT.SC.STUDYID" Mandatory="No" OrderNumber="1"/>
                <ItemRef ItemOID="IT.SC.SITEID" Mandatory="No" OrderNumber="2"/>
                <ItemRef ItemOID="IT.SC.SUBJID" Mandatory="No" OrderNumber="3"/>
                <ItemRef ItemOID="IT.SC.VISIT" Mandatory="No" OrderNumber="4"/>
                <ItemRef ItemOID="IT.SC.VISDAT" Mandatory="No" OrderNumber="5"/>
                <ItemRef ItemOID="IT.SC.SCCAT" Mandatory="No" OrderNumber="6"/>
                <ItemRef ItemOID="IT.SC.SCSCAT" Mandatory="No" OrderNumber="7"/>
                <ItemRef ItemOID="IT.SC.SCPERF" Mandatory="No" OrderNumber="8"/>
                <ItemRef ItemOID="IT.SC.SCSPID" Mandatory="No" OrderNumber="9"/>
                <ItemRef ItemOID="IT.SC.SCDAT" Mandatory="No" OrderNumber="10"/>
                <ItemRef ItemOID="IT.SC.SCTEST" Mandatory="No" OrderNumber="11"/>
                <ItemRef ItemOID="IT.SC.SCORRES" Mandatory="No" OrderNumber="12"/>
                <mdr:Class Name="FINDINGS"/>
            </ItemGroupDef>
            <ItemGroupDef Domain="TR" Name="TR" OID="IGD.TR" Purpose="Data Collection"
                Repeating="No">
                <Description>
                    <TranslatedText xml:lang="en">Tumor Results</TranslatedText>
                </Description>
                <ItemRef ItemOID="IT.TR.STUDYID" Mandatory="No" OrderNumber="1"/>
                <ItemRef ItemOID="IT.TR.SITEID" Mandatory="No" OrderNumber="2"/>
                <ItemRef ItemOID="IT.TR.SUBJID" Mandatory="No" OrderNumber="3"/>
                <ItemRef ItemOID="IT.TR.VISIT" Mandatory="No" OrderNumber="4"/>
                <ItemRef ItemOID="IT.TR.VISDAT" Mandatory="No" OrderNumber="5"/>
                <ItemRef ItemOID="IT.TR.TRLNKGRP" Mandatory="No" OrderNumber="6"/>
                <ItemRef ItemOID="IT.TR.TRCAT" Mandatory="No" OrderNumber="7"/>
                <ItemRef ItemOID="IT.TR.TRSCAT" Mandatory="No" OrderNumber="8"/>
                <ItemRef ItemOID="IT.TR.TRSTAT" Mandatory="No" OrderNumber="9"/>
                <ItemRef ItemOID="IT.TR.TRREASND" Mandatory="No" OrderNumber="10"/>
                <ItemRef ItemOID="IT.TR.TREVAL" Mandatory="No" OrderNumber="11"/>
                <ItemRef ItemOID="IT.TR.TREVALID" Mandatory="No" OrderNumber="12"/>
                <ItemRef ItemOID="IT.TR.TRDAT" Mandatory="No" OrderNumber="13"/>
                <ItemRef ItemOID="IT.TR.TRLNKID" Mandatory="No" OrderNumber="14"/>
                <ItemRef ItemOID="IT.TR.TRTEST" Mandatory="No" OrderNumber="15"/>
                <ItemRef ItemOID="IT.TR.TRORRES" Mandatory="No" OrderNumber="16"/>
                <ItemRef ItemOID="IT.TR.TRORRESU" Mandatory="No" OrderNumber="17"/>
                <ItemRef ItemOID="IT.TR.TRNAM" Mandatory="No" OrderNumber="18"/>
                <mdr:Class Name="FINDINGS"/>
            </ItemGroupDef>
            <ItemGroupDef Domain="TU" Name="TU" OID="IGD.TU" Purpose="Data Collection"
                Repeating="No">
                <Description>
                    <TranslatedText xml:lang="en">Tumor Identification</TranslatedText>
                </Description>
                <ItemRef ItemOID="IT.TU.STUDYID" Mandatory="No" OrderNumber="1"/>
                <ItemRef ItemOID="IT.TU.SITEID" Mandatory="No" OrderNumber="2"/>
                <ItemRef ItemOID="IT.TU.SUBJID" Mandatory="No" OrderNumber="3"/>
                <ItemRef ItemOID="IT.TU.VISIT" Mandatory="No" OrderNumber="4"/>
                <ItemRef ItemOID="IT.TU.VISDAT" Mandatory="No" OrderNumber="5"/>
                <ItemRef ItemOID="IT.TU.TUCAT" Mandatory="No" OrderNumber="6"/>
                <ItemRef ItemOID="IT.TU.TUSCAT" Mandatory="No" OrderNumber="7"/>
                <ItemRef ItemOID="IT.TU.TUYN" Mandatory="No" OrderNumber="8"/>
                <ItemRef ItemOID="IT.TU.TUDAT" Mandatory="No" OrderNumber="9"/>
                <ItemRef ItemOID="IT.TU.TUEVAL" Mandatory="No" OrderNumber="10"/>
                <ItemRef ItemOID="IT.TU.TUEVALID" Mandatory="No" OrderNumber="11"/>
                <ItemRef ItemOID="IT.TU.TULNKID" Mandatory="No" OrderNumber="12"/>
                <ItemRef ItemOID="IT.TU.TUPRNO" Mandatory="No" OrderNumber="13"/>
                <ItemRef ItemOID="IT.TU.TUMETHOD" Mandatory="No" OrderNumber="14"/>
                <ItemRef ItemOID="IT.TU.TUREFID" Mandatory="No" OrderNumber="15"/>
                <ItemRef ItemOID="IT.TU.TUTEST" Mandatory="No" OrderNumber="16"/>
                <ItemRef ItemOID="IT.TU.TUORRES" Mandatory="No" OrderNumber="17"/>
                <ItemRef ItemOID="IT.TU.TULOC" Mandatory="No" OrderNumber="18"/>
                <ItemRef ItemOID="IT.TU.TULAT" Mandatory="No" OrderNumber="19"/>
                <ItemRef ItemOID="IT.TU.TUDIR" Mandatory="No" OrderNumber="20"/>
                <ItemRef ItemOID="IT.TU.TULOCDTL" Mandatory="No" OrderNumber="21"/>
                <ItemRef ItemOID="IT.TU.TUNAM" Mandatory="No" OrderNumber="22"/>
                <mdr:Class Name="FINDINGS"/>
            </ItemGroupDef>
            <ItemGroupDef Domain="VS" Name="VS" OID="IGD.VS" Purpose="Data Collection"
                Repeating="No">
                <Description>
                    <TranslatedText xml:lang="en">Vital Signs</TranslatedText>
                </Description>
                <ItemRef ItemOID="IT.VS.STUDYID" Mandatory="No" OrderNumber="1"/>
                <ItemRef ItemOID="IT.VS.SITEID" Mandatory="No" OrderNumber="2"/>
                <ItemRef ItemOID="IT.VS.SUBJID" Mandatory="No" OrderNumber="3"/>
                <ItemRef ItemOID="IT.VS.VISIT" Mandatory="No" OrderNumber="4"/>
                <ItemRef ItemOID="IT.VS.VISDAT" Mandatory="No" OrderNumber="5"/>
                <ItemRef ItemOID="IT.VS.VSPERF" Mandatory="No" OrderNumber="6"/>
                <ItemRef ItemOID="IT.VS.VSDAT" Mandatory="No" OrderNumber="7"/>
                <ItemRef ItemOID="IT.VS.VSTIM" Mandatory="No" OrderNumber="8"/>
                <ItemRef ItemOID="IT.VS.VSSPID" Mandatory="No" OrderNumber="9"/>
                <ItemRef ItemOID="IT.VS.VSTPT" Mandatory="No" OrderNumber="10"/>
                <ItemRef ItemOID="IT.VS.VSCAT" Mandatory="No" OrderNumber="11"/>
                <ItemRef ItemOID="IT.VS.VSSCAT" Mandatory="No" OrderNumber="12"/>
                <ItemRef ItemOID="IT.VS.VSREPNUM" Mandatory="No" OrderNumber="13"/>
                <ItemRef ItemOID="IT.VS.VSTEST" Mandatory="No" OrderNumber="14"/>
                <ItemRef ItemOID="IT.VS.VSSTAT" Mandatory="No" OrderNumber="15"/>
                <ItemRef ItemOID="IT.VS.VSORRES" Mandatory="No" OrderNumber="16"/>
                <ItemRef ItemOID="IT.VS.VSORRESU" Mandatory="No" OrderNumber="17"/>
                <ItemRef ItemOID="IT.VS.VSCLSIG" Mandatory="No" OrderNumber="18"/>
                <ItemRef ItemOID="IT.VS.VSLOC" Mandatory="No" OrderNumber="19"/>
                <ItemRef ItemOID="IT.VS.VSPOS" Mandatory="No" OrderNumber="20"/>
                <ItemRef ItemOID="IT.VS.VSDIR" Mandatory="No" OrderNumber="21"/>
                <ItemRef ItemOID="IT.VS.VSLAT" Mandatory="No" OrderNumber="22"/>
                <mdr:Class Name="FINDINGS"/>
            </ItemGroupDef>
            <ItemGroupDef Domain="FA" Name="FA" OID="IGD.FA" Purpose="Data Collection"
                Repeating="No">
                <Description>
                    <TranslatedText xml:lang="en">Findings About Events or
                        Interventions</TranslatedText>
                </Description>
                <ItemRef ItemOID="IT.FA.STUDYID" Mandatory="No" OrderNumber="1"/>
                <ItemRef ItemOID="IT.FA.SITEID" Mandatory="No" OrderNumber="2"/>
                <ItemRef ItemOID="IT.FA.SUBJID" Mandatory="No" OrderNumber="3"/>
                <ItemRef ItemOID="IT.FA.FAOBJ" Mandatory="No" OrderNumber="4"/>
                <ItemRef ItemOID="IT.FA.FAYN" Mandatory="No" OrderNumber="5"/>
                <ItemRef ItemOID="IT.FA.FAPERF" Mandatory="No" OrderNumber="6"/>
                <ItemRef ItemOID="IT.FA.FATEST" Mandatory="No" OrderNumber="7"/>
                <ItemRef ItemOID="IT.FA.FATSTDTL" Mandatory="No" OrderNumber="8"/>
                <ItemRef ItemOID="IT.FA.FACAT" Mandatory="No" OrderNumber="9"/>
                <ItemRef ItemOID="IT.FA.FASCAT" Mandatory="No" OrderNumber="10"/>
                <ItemRef ItemOID="IT.FA.FAPOS" Mandatory="No" OrderNumber="11"/>
                <ItemRef ItemOID="IT.FA.FAORRES" Mandatory="No" OrderNumber="12"/>
                <ItemRef ItemOID="IT.FA.FAORRESU" Mandatory="No" OrderNumber="13"/>
                <ItemRef ItemOID="IT.FA.FAORNRLO" Mandatory="No" OrderNumber="14"/>
                <ItemRef ItemOID="IT.FA.FAORNRHI" Mandatory="No" OrderNumber="15"/>
                <ItemRef ItemOID="IT.FA.FANRIND" Mandatory="No" OrderNumber="16"/>
                <ItemRef ItemOID="IT.FA.FASTAT" Mandatory="No" OrderNumber="17"/>
                <ItemRef ItemOID="IT.FA.FAREASND" Mandatory="No" OrderNumber="18"/>
                <ItemRef ItemOID="IT.FA.FASPEC" Mandatory="No" OrderNumber="19"/>
                <ItemRef ItemOID="IT.FA.FASPCCND" Mandatory="No" OrderNumber="20"/>
                <ItemRef ItemOID="IT.FA.FALOC" Mandatory="No" OrderNumber="21"/>
                <ItemRef ItemOID="IT.FA.FALAT" Mandatory="No" OrderNumber="22"/>
                <ItemRef ItemOID="IT.FA.FADIR" Mandatory="No" OrderNumber="23"/>
                <ItemRef ItemOID="IT.FA.FAPORTOT" Mandatory="No" OrderNumber="24"/>
                <ItemRef ItemOID="IT.FA.FAMETHOD" Mandatory="No" OrderNumber="25"/>
                <ItemRef ItemOID="IT.FA.FALEAD" Mandatory="No" OrderNumber="26"/>
                <ItemRef ItemOID="IT.FA.FAFAST" Mandatory="No" OrderNumber="27"/>
                <ItemRef ItemOID="IT.FA.FAEVAL" Mandatory="No" OrderNumber="28"/>
                <ItemRef ItemOID="IT.FA.FAEVALID" Mandatory="No" OrderNumber="29"/>
                <ItemRef ItemOID="IT.FA.FACLSIG" Mandatory="No" OrderNumber="30"/>
                <mdr:Class Name="FINDINGS ABOUT"/>
            </ItemGroupDef>
            <ItemGroupDef Domain="SR" Name="SR" OID="IGD.SR" Purpose="Data Collection"
                Repeating="No">
                <Description>
                    <TranslatedText xml:lang="en">Skin Response</TranslatedText>
                </Description>
                <ItemRef ItemOID="IT.SR.STUDYID" Mandatory="No" OrderNumber="1"/>
                <ItemRef ItemOID="IT.SR.SITEID" Mandatory="No" OrderNumber="2"/>
                <ItemRef ItemOID="IT.SR.SUBJID" Mandatory="No" OrderNumber="3"/>
                <ItemRef ItemOID="IT.SR.VISIT" Mandatory="No" OrderNumber="4"/>
                <ItemRef ItemOID="IT.SR.VISDAT" Mandatory="No" OrderNumber="5"/>
                <ItemRef ItemOID="IT.SR.SRPERF" Mandatory="No" OrderNumber="6"/>
                <ItemRef ItemOID="IT.SR.SRREASND" Mandatory="No" OrderNumber="7"/>
                <ItemRef ItemOID="IT.SR.SRCAT" Mandatory="No" OrderNumber="8"/>
                <ItemRef ItemOID="IT.SR.SRSCAT" Mandatory="No" OrderNumber="9"/>
                <ItemRef ItemOID="IT.SR.SRSPID" Mandatory="No" OrderNumber="10"/>
                <ItemRef ItemOID="IT.SR.SROBJ" Mandatory="No" OrderNumber="11"/>
                <ItemRef ItemOID="IT.SR.SRRFTDAT" Mandatory="No" OrderNumber="12"/>
                <ItemRef ItemOID="IT.SR.SRRFTTIM" Mandatory="No" OrderNumber="13"/>
                <ItemRef ItemOID="IT.SR.SRLOC" Mandatory="No" OrderNumber="14"/>
                <ItemRef ItemOID="IT.SR.SRLAT" Mandatory="No" OrderNumber="15"/>
                <ItemRef ItemOID="IT.SR.SRTEST" Mandatory="No" OrderNumber="16"/>
                <ItemRef ItemOID="IT.SR.SRTPT" Mandatory="No" OrderNumber="17"/>
                <ItemRef ItemOID="IT.SR.SRDAT" Mandatory="No" OrderNumber="18"/>
                <ItemRef ItemOID="IT.SR.SRTIM" Mandatory="No" OrderNumber="19"/>
                <ItemRef ItemOID="IT.SR.SRDIR" Mandatory="No" OrderNumber="20"/>
                <ItemRef ItemOID="IT.SR.SREVAL" Mandatory="No" OrderNumber="21"/>
                <ItemRef ItemOID="IT.SR.SREVALID" Mandatory="No" OrderNumber="22"/>
                <ItemRef ItemOID="IT.SR.SRORRES" Mandatory="No" OrderNumber="23"/>
                <ItemRef ItemOID="IT.SR.SRORRESU" Mandatory="No" OrderNumber="24"/>
                <ItemRef ItemOID="IT.SR.SRNRIND" Mandatory="No" OrderNumber="25"/>
                <ItemRef ItemOID="IT.SR.SRCLSIG" Mandatory="No" OrderNumber="26"/>
                <mdr:Class Name="FINDINGS ABOUT"/>
            </ItemGroupDef>
            <ItemGroupDef Domain="Drug Accountability" Name="DA.HorizontalGeneric"
                OID="IGD.DA.HorizontalGeneric" Purpose="Data Collection" Repeating="No">
                <Description>
                    <TranslatedText xml:lang="en"/>
                </Description>
                <ItemRef ItemOID="IT.DA.STUDYID" Mandatory="No" OrderNumber="1"/>
                <ItemRef ItemOID="IT.DA.SITEID" Mandatory="No" OrderNumber="2"/>
                <ItemRef ItemOID="IT.DA.SUBJID" Mandatory="No" OrderNumber="3"/>
                <ItemRef ItemOID="IT.DA.VISIT" Mandatory="No" OrderNumber="4"/>
                <ItemRef ItemOID="IT.DA.VISDAT" Mandatory="No" OrderNumber="5"/>
                <ItemRef ItemOID="IT.DA.DAPERF" Mandatory="No" OrderNumber="6"/>
                <ItemRef ItemOID="IT.DA.DACAT" Mandatory="No" OrderNumber="7"/>
                <ItemRef ItemOID="IT.DA.DASCAT" Mandatory="No" OrderNumber="8"/>
                <ItemRef ItemOID="IT.DA.DADAT" Mandatory="No" OrderNumber="9"/>
                <ItemRef ItemOID="IT.DA.DAREFID" Mandatory="No" OrderNumber="10"/>
                <ItemRef ItemOID="IT.DA.DATEST" Mandatory="No" OrderNumber="11"/>
                <ItemRef ItemOID="IT.DA.DAORRES" Mandatory="No" OrderNumber="12"/>
                <ItemRef ItemOID="IT.DA.DAORRESU" Mandatory="No" OrderNumber="13"/>
                <ItemRef ItemOID="IT.DA.HorizontalGeneric.STUDYID" Mandatory="No" OrderNumber="14"/>
                <ItemRef ItemOID="IT.DA.HorizontalGeneric.SITEID" Mandatory="No" OrderNumber="15"/>
                <ItemRef ItemOID="IT.DA.HorizontalGeneric.SUBJID" Mandatory="No" OrderNumber="16"/>
                <ItemRef ItemOID="IT.DA.HorizontalGeneric.VISIT" Mandatory="No" OrderNumber="17"/>
                <ItemRef ItemOID="IT.DA.HorizontalGeneric.VISDAT" Mandatory="No" OrderNumber="18"/>
                <ItemRef ItemOID="IT.DA.HorizontalGeneric.DAGRPID" Mandatory="No" OrderNumber="19"/>
                <ItemRef ItemOID="IT.DA.HorizontalGeneric.[DATESTCD]_DAPERF" Mandatory="No"
                    OrderNumber="20"/>
                <ItemRef ItemOID="IT.DA.HorizontalGeneric.[DATESTCD]_DACAT" Mandatory="No"
                    OrderNumber="21"/>
                <ItemRef ItemOID="IT.DA.HorizontalGeneric.[DATESTCD]_DASCAT" Mandatory="No"
                    OrderNumber="22"/>
                <ItemRef ItemOID="IT.DA.HorizontalGeneric.[DATESTCD]_DAREFID" Mandatory="No"
                    OrderNumber="23"/>
                <ItemRef ItemOID="IT.DA.HorizontalGeneric.[DATESTCD]_DADAT" Mandatory="No"
                    OrderNumber="24"/>
                <ItemRef ItemOID="IT.DA.HorizontalGeneric.[DATESTCD]_DAORRES" Mandatory="No"
                    OrderNumber="25"/>
                <ItemRef ItemOID="IT.DA.HorizontalGeneric.[DATESTCD]_DAORRESU" Mandatory="No"
                    OrderNumber="26"/>
                <mdr:Class Name="FINDINGS"/>
            </ItemGroupDef>
            <ItemGroupDef Domain="Death Details" Name="DD.HorizontalGeneric"
                OID="IGD.DD.HorizontalGeneric" Purpose="Data Collection" Repeating="No">
                <Description>
                    <TranslatedText xml:lang="en"/>
                </Description>
                <ItemRef ItemOID="IT.DD.STUDYID" Mandatory="No" OrderNumber="1"/>
                <ItemRef ItemOID="IT.DD.SITEID" Mandatory="No" OrderNumber="2"/>
                <ItemRef ItemOID="IT.DD.SUBJID" Mandatory="No" OrderNumber="3"/>
                <ItemRef ItemOID="IT.DD.VISIT" Mandatory="No" OrderNumber="4"/>
                <ItemRef ItemOID="IT.DD.VISDAT" Mandatory="No" OrderNumber="5"/>
                <ItemRef ItemOID="IT.DD.DDCAT" Mandatory="No" OrderNumber="6"/>
                <ItemRef ItemOID="IT.DD.DDSCAT" Mandatory="No" OrderNumber="7"/>
                <ItemRef ItemOID="IT.DD.DDYN" Mandatory="No" OrderNumber="8"/>
                <ItemRef ItemOID="IT.DD.DDDAT" Mandatory="No" OrderNumber="9"/>
                <ItemRef ItemOID="IT.DD.DDSPID" Mandatory="No" OrderNumber="10"/>
                <ItemRef ItemOID="IT.DD.DTHDAT" Mandatory="No" OrderNumber="11"/>
                <ItemRef ItemOID="IT.DD.DDTEST" Mandatory="No" OrderNumber="12"/>
                <ItemRef ItemOID="IT.DD.DDORRES" Mandatory="No" OrderNumber="13"/>
                <ItemRef ItemOID="IT.DD.DDEVAL" Mandatory="No" OrderNumber="14"/>
                <ItemRef ItemOID="IT.DD.HorizontalGeneric.STUDYID" Mandatory="No" OrderNumber="15"/>
                <ItemRef ItemOID="IT.DD.HorizontalGeneric.SITEID" Mandatory="No" OrderNumber="16"/>
                <ItemRef ItemOID="IT.DD.HorizontalGeneric.SUBJID" Mandatory="No" OrderNumber="17"/>
                <ItemRef ItemOID="IT.DD.HorizontalGeneric.VISIT" Mandatory="No" OrderNumber="18"/>
                <ItemRef ItemOID="IT.DD.HorizontalGeneric.VISDAT" Mandatory="No" OrderNumber="19"/>
                <ItemRef ItemOID="IT.DD.HorizontalGeneric.DDYN" Mandatory="No" OrderNumber="20"/>
                <ItemRef ItemOID="IT.DD.HorizontalGeneric.DDCAT" Mandatory="No" OrderNumber="21"/>
                <ItemRef ItemOID="IT.DD.HorizontalGeneric.DDSCAT" Mandatory="No" OrderNumber="22"/>
                <ItemRef ItemOID="IT.DD.HorizontalGeneric.[DTHDXCD]_DDDAT" Mandatory="No"
                    OrderNumber="23"/>
                <ItemRef ItemOID="IT.DD.HorizontalGeneric.DTHDAT" Mandatory="No" OrderNumber="24"/>
                <ItemRef ItemOID="IT.DD.HorizontalGeneric.[DTHDXCD]_DDORRES" Mandatory="No"
                    OrderNumber="25"/>
                <ItemRef ItemOID="IT.DD.HorizontalGeneric.DDEVAL" Mandatory="No" OrderNumber="26"/>
                <mdr:Class Name="FINDINGS"/>
            </ItemGroupDef>
            <ItemGroupDef Domain="ECG" Name="EG.CentralReading" OID="IGD.EG.CentralReading"
                Purpose="Data Collection" Repeating="No">
                <Description>
                    <TranslatedText xml:lang="en"/>
                </Description>
                <ItemRef ItemOID="IT.EG.CentralReading.STUDYID" Mandatory="No" OrderNumber="1"/>
                <ItemRef ItemOID="IT.EG.CentralReading.SITEID" Mandatory="No" OrderNumber="2"/>
                <ItemRef ItemOID="IT.EG.CentralReading.SUBJID" Mandatory="No" OrderNumber="3"/>
                <ItemRef ItemOID="IT.EG.CentralReading.VISIT" Mandatory="No" OrderNumber="4"/>
                <ItemRef ItemOID="IT.EG.CentralReading.VISDAT" Mandatory="No" OrderNumber="5"/>
                <ItemRef ItemOID="IT.EG.CentralReading.EGCAT" Mandatory="No" OrderNumber="6"/>
                <ItemRef ItemOID="IT.EG.CentralReading.EGSCAT" Mandatory="No" OrderNumber="7"/>
                <ItemRef ItemOID="IT.EG.CentralReading.EGPERF" Mandatory="No" OrderNumber="8"/>
                <ItemRef ItemOID="IT.EG.CentralReading.EGREFID" Mandatory="No" OrderNumber="9"/>
                <ItemRef ItemOID="IT.EG.CentralReading.EGMETHOD" Mandatory="No" OrderNumber="10"/>
                <ItemRef ItemOID="IT.EG.CentralReading.EGPOS" Mandatory="No" OrderNumber="11"/>
                <ItemRef ItemOID="IT.EG.CentralReading.EGDAT" Mandatory="No" OrderNumber="12"/>
                <ItemRef ItemOID="IT.EG.CentralReading.EGTPT" Mandatory="No" OrderNumber="13"/>
                <ItemRef ItemOID="IT.EG.CentralReading.EGTIM" Mandatory="No" OrderNumber="14"/>
                <mdr:Class Name="FINDINGS"/>
            </ItemGroupDef>
            <ItemGroupDef Domain="ECG" Name="EG.LocalReading" OID="IGD.EG.LocalReading"
                Purpose="Data Collection" Repeating="No">
                <Description>
                    <TranslatedText xml:lang="en"/>
                </Description>
                <ItemRef ItemOID="IT.EG.LocalReading.STUDYID" Mandatory="No" OrderNumber="1"/>
                <ItemRef ItemOID="IT.EG.LocalReading.SITEID" Mandatory="No" OrderNumber="2"/>
                <ItemRef ItemOID="IT.EG.LocalReading.SUBJID" Mandatory="No" OrderNumber="3"/>
                <ItemRef ItemOID="IT.EG.LocalReading.VISIT" Mandatory="No" OrderNumber="4"/>
                <ItemRef ItemOID="IT.EG.LocalReading.VISDAT" Mandatory="No" OrderNumber="5"/>
                <ItemRef ItemOID="IT.EG.LocalReading.EGCAT" Mandatory="No" OrderNumber="6"/>
                <ItemRef ItemOID="IT.EG.LocalReading.EGSCAT" Mandatory="No" OrderNumber="7"/>
                <ItemRef ItemOID="IT.EG.LocalReading.EGPERF" Mandatory="No" OrderNumber="8"/>
                <ItemRef ItemOID="IT.EG.LocalReading.EGMETHOD" Mandatory="No" OrderNumber="9"/>
                <ItemRef ItemOID="IT.EG.LocalReading.EGPOS" Mandatory="No" OrderNumber="10"/>
                <ItemRef ItemOID="IT.EG.LocalReading.EGDAT" Mandatory="No" OrderNumber="11"/>
                <ItemRef ItemOID="IT.EG.LocalReading.EGTPT" Mandatory="No" OrderNumber="12"/>
                <ItemRef ItemOID="IT.EG.LocalReading.EGTIM" Mandatory="No" OrderNumber="13"/>
                <ItemRef ItemOID="IT.EG.LocalReading.EGTEST" Mandatory="No" OrderNumber="14"/>
                <ItemRef ItemOID="IT.EG.LocalReading.EGORRES" Mandatory="No" OrderNumber="15"/>
                <ItemRef ItemOID="IT.EG.LocalReading.EGORRESU" Mandatory="No" OrderNumber="16"/>
                <ItemRef ItemOID="IT.EG.LocalReading.EGCLSIG" Mandatory="No" OrderNumber="17"/>
                <mdr:Class Name="FINDINGS"/>
            </ItemGroupDef>
            <ItemGroupDef Domain="ECG" Name="EG.CentralReadingIA" OID="IGD.EG.CentralReadingIA"
                Purpose="Data Collection" Repeating="No">
                <Description>
                    <TranslatedText xml:lang="en"/>
                </Description>
                <ItemRef ItemOID="IT.EG.CentralReadingIA.STUDYID" Mandatory="No" OrderNumber="1"/>
                <ItemRef ItemOID="IT.EG.CentralReadingIA.SITEID" Mandatory="No" OrderNumber="2"/>
                <ItemRef ItemOID="IT.EG.CentralReadingIA.SUBJID" Mandatory="No" OrderNumber="3"/>
                <ItemRef ItemOID="IT.EG.CentralReadingIA.VISIT" Mandatory="No" OrderNumber="4"/>
                <ItemRef ItemOID="IT.EG.CentralReadingIA.VISDAT" Mandatory="No" OrderNumber="5"/>
                <ItemRef ItemOID="IT.EG.CentralReadingIA.EGCAT" Mandatory="No" OrderNumber="6"/>
                <ItemRef ItemOID="IT.EG.CentralReadingIA.EGSCAT" Mandatory="No" OrderNumber="7"/>
                <ItemRef ItemOID="IT.EG.CentralReadingIA.EGPERF" Mandatory="No" OrderNumber="8"/>
                <ItemRef ItemOID="IT.EG.CentralReadingIA.EGREFID" Mandatory="No" OrderNumber="9"/>
                <ItemRef ItemOID="IT.EG.CentralReadingIA.EGMETHOD" Mandatory="No" OrderNumber="10"/>
                <ItemRef ItemOID="IT.EG.CentralReadingIA.EGPOS" Mandatory="No" OrderNumber="11"/>
                <ItemRef ItemOID="IT.EG.CentralReadingIA.EGDAT" Mandatory="No" OrderNumber="12"/>
                <ItemRef ItemOID="IT.EG.CentralReadingIA.EGTPT" Mandatory="No" OrderNumber="13"/>
                <ItemRef ItemOID="IT.EG.CentralReadingIA.EGTIM" Mandatory="No" OrderNumber="14"/>
                <ItemRef ItemOID="IT.EG.CentralReadingIA.EGEVAL" Mandatory="No" OrderNumber="15"/>
                <ItemRef ItemOID="IT.EG.CentralReadingIA.INTP_EGORRES" Mandatory="No"
                    OrderNumber="16"/>
                <ItemRef ItemOID="IT.EG.CentralReadingIA.EGCLSIG" Mandatory="No" OrderNumber="17"/>
                <ItemRef ItemOID="IT.EG.CentralReadingIA.EGMHNO" Mandatory="No" OrderNumber="18"/>
                <ItemRef ItemOID="IT.EG.CentralReadingIA.EGAENO" Mandatory="No" OrderNumber="19"/>
                <mdr:Class Name="FINDINGS"/>
            </ItemGroupDef>
            <ItemGroupDef Domain="Labs" Name="LB.CentralProcessing" OID="IGD.LB.CentralProcessing"
                Purpose="Data Collection" Repeating="No">
                <Description>
                    <TranslatedText xml:lang="en"/>
                </Description>
                <ItemRef ItemOID="IT.LB.CentralProcessing.STUDYID" Mandatory="No" OrderNumber="1"/>
                <ItemRef ItemOID="IT.LB.CentralProcessing.SITEID" Mandatory="No" OrderNumber="2"/>
                <ItemRef ItemOID="IT.LB.CentralProcessing.SUBJID" Mandatory="No" OrderNumber="3"/>
                <ItemRef ItemOID="IT.LB.CentralProcessing.VISIT" Mandatory="No" OrderNumber="4"/>
                <ItemRef ItemOID="IT.LB.CentralProcessing.VISDAT" Mandatory="No" OrderNumber="5"/>
                <ItemRef ItemOID="IT.LB.CentralProcessing.LBPERF" Mandatory="No" OrderNumber="6"/>
                <ItemRef ItemOID="IT.LB.CentralProcessing.LBDAT" Mandatory="No" OrderNumber="7"/>
                <ItemRef ItemOID="IT.LB.CentralProcessing.LBTIM" Mandatory="No" OrderNumber="8"/>
                <ItemRef ItemOID="IT.LB.CentralProcessing.LBCAT" Mandatory="No" OrderNumber="9"/>
                <ItemRef ItemOID="IT.LB.CentralProcessing.LBSCAT" Mandatory="No" OrderNumber="10"/>
                <ItemRef ItemOID="IT.LB.CentralProcessing.LBTPT" Mandatory="No" OrderNumber="11"/>
                <ItemRef ItemOID="IT.LB.CentralProcessing.LBCOND" Mandatory="No" OrderNumber="12"/>
                <ItemRef ItemOID="IT.LB.CentralProcessing.LBFAST" Mandatory="No" OrderNumber="13"/>
                <ItemRef ItemOID="IT.LB.CentralProcessing.LBREFID" Mandatory="No" OrderNumber="14"/>
                <mdr:Class Name="FINDINGS"/>
            </ItemGroupDef>
            <ItemGroupDef Domain="Labs" Name="LB.CentralProcessingCS"
                OID="IGD.LB.CentralProcessingCS" Purpose="Data Collection" Repeating="No">
                <Description>
                    <TranslatedText xml:lang="en"/>
                </Description>
                <ItemRef ItemOID="IT.LB.CentralProcessingCS.STUDYID" Mandatory="No" OrderNumber="1"/>
                <ItemRef ItemOID="IT.LB.CentralProcessingCS.SITEID" Mandatory="No" OrderNumber="2"/>
                <ItemRef ItemOID="IT.LB.CentralProcessingCS.SUBJID" Mandatory="No" OrderNumber="3"/>
                <ItemRef ItemOID="IT.LB.CentralProcessingCS.VISIT" Mandatory="No" OrderNumber="4"/>
                <ItemRef ItemOID="IT.LB.CentralProcessingCS.VISDAT" Mandatory="No" OrderNumber="5"/>
                <ItemRef ItemOID="IT.LB.CentralProcessingCS.LBPERF" Mandatory="No" OrderNumber="6"/>
                <ItemRef ItemOID="IT.LB.CentralProcessingCS.LBDAT" Mandatory="No" OrderNumber="7"/>
                <ItemRef ItemOID="IT.LB.CentralProcessingCS.LBTIM" Mandatory="No" OrderNumber="8"/>
                <ItemRef ItemOID="IT.LB.CentralProcessingCS.LBCAT" Mandatory="No" OrderNumber="9"/>
                <ItemRef ItemOID="IT.LB.CentralProcessingCS.LBSCAT" Mandatory="No" OrderNumber="10"/>
                <ItemRef ItemOID="IT.LB.CentralProcessingCS.LBTPT" Mandatory="No" OrderNumber="11"/>
                <ItemRef ItemOID="IT.LB.CentralProcessingCS.LBCOND" Mandatory="No" OrderNumber="12"/>
                <ItemRef ItemOID="IT.LB.CentralProcessingCS.LBFAST" Mandatory="No" OrderNumber="13"/>
                <ItemRef ItemOID="IT.LB.CentralProcessingCS.LBTEST" Mandatory="No" OrderNumber="14"/>
                <ItemRef ItemOID="IT.LB.CentralProcessingCS.LBORRES" Mandatory="No" OrderNumber="15"/>
                <ItemRef ItemOID="IT.LB.CentralProcessingCS.LBORRESU" Mandatory="No"
                    OrderNumber="16"/>
                <ItemRef ItemOID="IT.LB.CentralProcessingCS.LBCLSIG" Mandatory="No" OrderNumber="17"/>
                <ItemRef ItemOID="IT.LB.CentralProcessingCS.LBREFID" Mandatory="No" OrderNumber="18"/>
                <ItemRef ItemOID="IT.LB.CentralProcessingCS.LBMETHOD" Mandatory="No"
                    OrderNumber="19"/>
                <mdr:Class Name="FINDINGS"/>
            </ItemGroupDef>
            <ItemGroupDef Domain="Labs" Name="LB.LocalProcessing" OID="IGD.LB.LocalProcessing"
                Purpose="Data Collection" Repeating="No">
                <Description>
                    <TranslatedText xml:lang="en"/>
                </Description>
                <ItemRef ItemOID="IT.LB.LocalProcessing.STUDYID" Mandatory="No" OrderNumber="1"/>
                <ItemRef ItemOID="IT.LB.LocalProcessing.SITEID" Mandatory="No" OrderNumber="2"/>
                <ItemRef ItemOID="IT.LB.LocalProcessing.SUBJID" Mandatory="No" OrderNumber="3"/>
                <ItemRef ItemOID="IT.LB.LocalProcessing.VISIT" Mandatory="No" OrderNumber="4"/>
                <ItemRef ItemOID="IT.LB.LocalProcessing.VISDAT" Mandatory="No" OrderNumber="5"/>
                <ItemRef ItemOID="IT.LB.LocalProcessing.LBPERF" Mandatory="No" OrderNumber="6"/>
                <ItemRef ItemOID="IT.LB.LocalProcessing.LBDAT" Mandatory="No" OrderNumber="7"/>
                <ItemRef ItemOID="IT.LB.LocalProcessing.LBTIM" Mandatory="No" OrderNumber="8"/>
                <ItemRef ItemOID="IT.LB.LocalProcessing.LBCAT" Mandatory="No" OrderNumber="9"/>
                <ItemRef ItemOID="IT.LB.LocalProcessing.LBSCAT" Mandatory="No" OrderNumber="10"/>
                <ItemRef ItemOID="IT.LB.LocalProcessing.LBTPT" Mandatory="No" OrderNumber="11"/>
                <ItemRef ItemOID="IT.LB.LocalProcessing.LBFAST" Mandatory="No" OrderNumber="12"/>
                <ItemRef ItemOID="IT.LB.LocalProcessing.LBCOND" Mandatory="No" OrderNumber="13"/>
                <ItemRef ItemOID="IT.LB.LocalProcessing.LBSPCCND" Mandatory="No" OrderNumber="14"/>
                <ItemRef ItemOID="IT.LB.LocalProcessing.LBTEST" Mandatory="No" OrderNumber="15"/>
                <ItemRef ItemOID="IT.LB.LocalProcessing.LBORRES" Mandatory="No" OrderNumber="16"/>
                <ItemRef ItemOID="IT.LB.LocalProcessing.LBMETHOD" Mandatory="No" OrderNumber="17"/>
                <ItemRef ItemOID="IT.LB.LocalProcessing.LBORRESU" Mandatory="No" OrderNumber="18"/>
                <ItemRef ItemOID="IT.LB.LocalProcessing.LBCRESU" Mandatory="No" OrderNumber="19"/>
                <ItemRef ItemOID="IT.LB.LocalProcessing.LBTOXGR" Mandatory="No" OrderNumber="20"/>
                <ItemRef ItemOID="IT.LB.LocalProcessing.LBTOX" Mandatory="No" OrderNumber="21"/>
                <ItemRef ItemOID="IT.LB.LocalProcessing.LBORNRLO" Mandatory="No" OrderNumber="22"/>
                <ItemRef ItemOID="IT.LB.LocalProcessing.LBORNRHI" Mandatory="No" OrderNumber="23"/>
                <ItemRef ItemOID="IT.LB.LocalProcessing.LBNRIND" Mandatory="No" OrderNumber="24"/>
                <ItemRef ItemOID="IT.LB.LocalProcessing.LBCLSIG" Mandatory="No" OrderNumber="25"/>
                <ItemRef ItemOID="IT.LB.LocalProcessing.LBNAM" Mandatory="No" OrderNumber="26"/>
                <mdr:Class Name="FINDINGS"/>
            </ItemGroupDef>
            <ItemGroupDef Domain="Microbiology Specimen" Name="MB.CentralProcessing"
                OID="IGD.MB.CentralProcessing" Purpose="Data Collection" Repeating="No">
                <Description>
                    <TranslatedText xml:lang="en"/>
                </Description>
                <ItemRef ItemOID="IT.MB.CentralProcessing.STUDYID" Mandatory="No" OrderNumber="1"/>
                <ItemRef ItemOID="IT.MB.CentralProcessing.SITEID" Mandatory="No" OrderNumber="2"/>
                <ItemRef ItemOID="IT.MB.CentralProcessing.SUBJID" Mandatory="No" OrderNumber="3"/>
                <ItemRef ItemOID="IT.MB.CentralProcessing.VISIT" Mandatory="No" OrderNumber="4"/>
                <ItemRef ItemOID="IT.MB.CentralProcessing.VISDAT" Mandatory="No" OrderNumber="5"/>
                <ItemRef ItemOID="IT.MB.CentralProcessing.MBPERF" Mandatory="No" OrderNumber="6"/>
                <ItemRef ItemOID="IT.MB.CentralProcessing.MBREFID" Mandatory="No" OrderNumber="7"/>
                <ItemRef ItemOID="IT.MB.CentralProcessing.MBDAT" Mandatory="No" OrderNumber="8"/>
                <ItemRef ItemOID="IT.MB.CentralProcessing.MBTIM" Mandatory="No" OrderNumber="9"/>
                <ItemRef ItemOID="IT.MB.CentralProcessing.MBCAT" Mandatory="No" OrderNumber="10"/>
                <ItemRef ItemOID="IT.MB.CentralProcessing.MBSCAT" Mandatory="No" OrderNumber="11"/>
                <ItemRef ItemOID="IT.MB.CentralProcessing.MBSPEC" Mandatory="No" OrderNumber="12"/>
                <ItemRef ItemOID="IT.MB.CentralProcessing.MBSPCCND" Mandatory="No" OrderNumber="13"/>
                <ItemRef ItemOID="IT.MB.CentralProcessing.MBLOC" Mandatory="No" OrderNumber="14"/>
                <ItemRef ItemOID="IT.MB.CentralProcessing.MBLAT" Mandatory="No" OrderNumber="15"/>
                <ItemRef ItemOID="IT.MB.CentralProcessing.MBDIR" Mandatory="No" OrderNumber="16"/>
                <mdr:Class Name="FINDINGS"/>
            </ItemGroupDef>
            <ItemGroupDef Domain="Microbiology Specimen" Name="MB.LocalProcessing"
                OID="IGD.MB.LocalProcessing" Purpose="Data Collection" Repeating="No">
                <Description>
                    <TranslatedText xml:lang="en"/>
                </Description>
                <ItemRef ItemOID="IT.MB.LocalProcessing.STUDYID" Mandatory="No" OrderNumber="1"/>
                <ItemRef ItemOID="IT.MB.LocalProcessing.SITEID" Mandatory="No" OrderNumber="2"/>
                <ItemRef ItemOID="IT.MB.LocalProcessing.SUBJID" Mandatory="No" OrderNumber="3"/>
                <ItemRef ItemOID="IT.MB.LocalProcessing.VISIT" Mandatory="No" OrderNumber="4"/>
                <ItemRef ItemOID="IT.MB.LocalProcessing.VISDAT" Mandatory="No" OrderNumber="5"/>
                <ItemRef ItemOID="IT.MB.LocalProcessing.MBPERF" Mandatory="No" OrderNumber="6"/>
                <ItemRef ItemOID="IT.MB.LocalProcessing.MBREFID" Mandatory="No" OrderNumber="7"/>
                <ItemRef ItemOID="IT.MB.LocalProcessing.MBSPID" Mandatory="No" OrderNumber="8"/>
                <ItemRef ItemOID="IT.MB.LocalProcessing.MBGRPID" Mandatory="No" OrderNumber="9"/>
                <ItemRef ItemOID="IT.MB.LocalProcessing.MBLNKID" Mandatory="No" OrderNumber="10"/>
                <ItemRef ItemOID="IT.MB.LocalProcessing.MBDAT" Mandatory="No" OrderNumber="11"/>
                <ItemRef ItemOID="IT.MB.LocalProcessing.MBTIM" Mandatory="No" OrderNumber="12"/>
                <ItemRef ItemOID="IT.MB.LocalProcessing.MBCAT" Mandatory="No" OrderNumber="13"/>
                <ItemRef ItemOID="IT.MB.LocalProcessing.MBSCAT" Mandatory="No" OrderNumber="14"/>
                <ItemRef ItemOID="IT.MB.LocalProcessing.MBTEST" Mandatory="No" OrderNumber="15"/>
                <ItemRef ItemOID="IT.MB.LocalProcessing.MBTSTDTL" Mandatory="No" OrderNumber="16"/>
                <ItemRef ItemOID="IT.MB.LocalProcessing.MBORRES" Mandatory="No" OrderNumber="17"/>
                <ItemRef ItemOID="IT.MB.LocalProcessing.MBORRESU" Mandatory="No" OrderNumber="18"/>
                <ItemRef ItemOID="IT.MB.LocalProcessing.MBCLSIG" Mandatory="No" OrderNumber="19"/>
                <ItemRef ItemOID="IT.MB.LocalProcessing.MBRESCAT" Mandatory="No" OrderNumber="20"/>
                <ItemRef ItemOID="IT.MB.LocalProcessing.MBNAM" Mandatory="No" OrderNumber="21"/>
                <ItemRef ItemOID="IT.MB.LocalProcessing.MBSPEC" Mandatory="No" OrderNumber="22"/>
                <ItemRef ItemOID="IT.MB.LocalProcessing.MBSPCCND" Mandatory="No" OrderNumber="23"/>
                <ItemRef ItemOID="IT.MB.LocalProcessing.MBLOC" Mandatory="No" OrderNumber="24"/>
                <ItemRef ItemOID="IT.MB.LocalProcessing.MBLAT" Mandatory="No" OrderNumber="25"/>
                <ItemRef ItemOID="IT.MB.LocalProcessing.MBDIR" Mandatory="No" OrderNumber="26"/>
                <ItemRef ItemOID="IT.MB.LocalProcessing.MBMETHOD" Mandatory="No" OrderNumber="27"/>
                <ItemRef ItemOID="IT.MB.LocalProcessing.MBEVAL" Mandatory="No" OrderNumber="28"/>
                <mdr:Class Name="FINDINGS"/>
            </ItemGroupDef>
            <ItemGroupDef Domain="Microscopic Findings" Name="MI.CentralProcessing"
                OID="IGD.MI.CentralProcessing" Purpose="Data Collection" Repeating="No">
                <Description>
                    <TranslatedText xml:lang="en"/>
                </Description>
                <ItemRef ItemOID="IT.MI.CentralProcessing.STUDYID" Mandatory="No" OrderNumber="1"/>
                <ItemRef ItemOID="IT.MI.CentralProcessing.SITEID" Mandatory="No" OrderNumber="2"/>
                <ItemRef ItemOID="IT.MI.CentralProcessing.SUBJID" Mandatory="No" OrderNumber="3"/>
                <ItemRef ItemOID="IT.MI.CentralProcessing.VISIT" Mandatory="No" OrderNumber="4"/>
                <ItemRef ItemOID="IT.MI.CentralProcessing.VISDAT" Mandatory="No" OrderNumber="5"/>
                <ItemRef ItemOID="IT.MI.CentralProcessing.MIPERF" Mandatory="No" OrderNumber="6"/>
                <ItemRef ItemOID="IT.MI.CentralProcessing.MIREFID" Mandatory="No" OrderNumber="7"/>
                <ItemRef ItemOID="IT.MI.CentralProcessing.MIDAT" Mandatory="No" OrderNumber="8"/>
                <ItemRef ItemOID="IT.MI.CentralProcessing.MITIM" Mandatory="No" OrderNumber="9"/>
                <ItemRef ItemOID="IT.MI.CentralProcessing.MICAT" Mandatory="No" OrderNumber="10"/>
                <ItemRef ItemOID="IT.MI.CentralProcessing.MISCAT" Mandatory="No" OrderNumber="11"/>
                <ItemRef ItemOID="IT.MI.CentralProcessing.MISPEC" Mandatory="No" OrderNumber="12"/>
                <ItemRef ItemOID="IT.MI.CentralProcessing.MISPCCND" Mandatory="No" OrderNumber="13"/>
                <ItemRef ItemOID="IT.MI.CentralProcessing.MILOC" Mandatory="No" OrderNumber="14"/>
                <ItemRef ItemOID="IT.MI.CentralProcessing.MILAT" Mandatory="No" OrderNumber="15"/>
                <ItemRef ItemOID="IT.MI.CentralProcessing.MIDIR" Mandatory="No" OrderNumber="16"/>
                <mdr:Class Name="FINDINGS"/>
            </ItemGroupDef>
            <ItemGroupDef Domain="Microscopic Findings" Name="MI.LocalProcessing"
                OID="IGD.MI.LocalProcessing" Purpose="Data Collection" Repeating="No">
                <Description>
                    <TranslatedText xml:lang="en"/>
                </Description>
                <ItemRef ItemOID="IT.MI.LocalProcessing.STUDYID" Mandatory="No" OrderNumber="1"/>
                <ItemRef ItemOID="IT.MI.LocalProcessing.SITEID" Mandatory="No" OrderNumber="2"/>
                <ItemRef ItemOID="IT.MI.LocalProcessing.SUBJID" Mandatory="No" OrderNumber="3"/>
                <ItemRef ItemOID="IT.MI.LocalProcessing.VISIT" Mandatory="No" OrderNumber="4"/>
                <ItemRef ItemOID="IT.MI.LocalProcessing.VISDAT" Mandatory="No" OrderNumber="5"/>
                <ItemRef ItemOID="IT.MI.LocalProcessing.MIPERF" Mandatory="No" OrderNumber="6"/>
                <ItemRef ItemOID="IT.MI.LocalProcessing.MIREFID" Mandatory="No" OrderNumber="7"/>
                <ItemRef ItemOID="IT.MI.LocalProcessing.MISPID" Mandatory="No" OrderNumber="8"/>
                <ItemRef ItemOID="IT.MI.LocalProcessing.MIDAT" Mandatory="No" OrderNumber="9"/>
                <ItemRef ItemOID="IT.MI.LocalProcessing.MITIM" Mandatory="No" OrderNumber="10"/>
                <ItemRef ItemOID="IT.MI.LocalProcessing.MICAT" Mandatory="No" OrderNumber="11"/>
                <ItemRef ItemOID="IT.MI.LocalProcessing.MISCAT" Mandatory="No" OrderNumber="12"/>
                <ItemRef ItemOID="IT.MI.LocalProcessing.MITEST" Mandatory="No" OrderNumber="13"/>
                <ItemRef ItemOID="IT.MI.LocalProcessing.MITSTDTL" Mandatory="No" OrderNumber="14"/>
                <ItemRef ItemOID="IT.MI.LocalProcessing.MIORRES" Mandatory="No" OrderNumber="15"/>
                <ItemRef ItemOID="IT.MI.LocalProcessing.MIORRESU" Mandatory="No" OrderNumber="16"/>
                <ItemRef ItemOID="IT.MI.LocalProcessing.MICLSIG" Mandatory="No" OrderNumber="17"/>
                <ItemRef ItemOID="IT.MI.LocalProcessing.MIRESCAT" Mandatory="No" OrderNumber="18"/>
                <ItemRef ItemOID="IT.MI.LocalProcessing.MINAM" Mandatory="No" OrderNumber="19"/>
                <ItemRef ItemOID="IT.MI.LocalProcessing.MISPEC" Mandatory="No" OrderNumber="20"/>
                <ItemRef ItemOID="IT.MI.LocalProcessing.MISPCCND" Mandatory="No" OrderNumber="21"/>
                <ItemRef ItemOID="IT.MI.LocalProcessing.MILOC" Mandatory="No" OrderNumber="22"/>
                <ItemRef ItemOID="IT.MI.LocalProcessing.MILAT" Mandatory="No" OrderNumber="23"/>
                <ItemRef ItemOID="IT.MI.LocalProcessing.MIDIR" Mandatory="No" OrderNumber="24"/>
                <ItemRef ItemOID="IT.MI.LocalProcessing.MIMETHOD" Mandatory="No" OrderNumber="25"/>
                <ItemRef ItemOID="IT.MI.LocalProcessing.MIEVAL" Mandatory="No" OrderNumber="26"/>
                <mdr:Class Name="FINDINGS"/>
            </ItemGroupDef>
            <ItemGroupDef Domain="Microbiology Susceptibility Test" Name="MS.CentralProcessing"
                OID="IGD.MS.CentralProcessing" Purpose="Data Collection" Repeating="No">
                <Description>
                    <TranslatedText xml:lang="en"/>
                </Description>
                <ItemRef ItemOID="IT.MS.CentralProcessing.STUDYID" Mandatory="No" OrderNumber="1"/>
                <ItemRef ItemOID="IT.MS.CentralProcessing.SITEID" Mandatory="No" OrderNumber="2"/>
                <ItemRef ItemOID="IT.MS.CentralProcessing.SUBJID" Mandatory="No" OrderNumber="3"/>
                <ItemRef ItemOID="IT.MS.CentralProcessing.VISIT" Mandatory="No" OrderNumber="4"/>
                <ItemRef ItemOID="IT.MS.CentralProcessing.VISDAT" Mandatory="No" OrderNumber="5"/>
                <ItemRef ItemOID="IT.MS.CentralProcessing.MSPERF" Mandatory="No" OrderNumber="6"/>
                <ItemRef ItemOID="IT.MS.CentralProcessing.MSREFID" Mandatory="No" OrderNumber="7"/>
                <ItemRef ItemOID="IT.MS.CentralProcessing.MSDAT" Mandatory="No" OrderNumber="8"/>
                <ItemRef ItemOID="IT.MS.CentralProcessing.MSTIM" Mandatory="No" OrderNumber="9"/>
                <ItemRef ItemOID="IT.MS.CentralProcessing.MSCAT" Mandatory="No" OrderNumber="10"/>
                <ItemRef ItemOID="IT.MS.CentralProcessing.MSSCAT" Mandatory="No" OrderNumber="11"/>
                <ItemRef ItemOID="IT.MS.CentralProcessing.MSSPEC" Mandatory="No" OrderNumber="12"/>
                <ItemRef ItemOID="IT.MS.CentralProcessing.MSSPCCND" Mandatory="No" OrderNumber="13"/>
                <ItemRef ItemOID="IT.MS.CentralProcessing.MSLOC" Mandatory="No" OrderNumber="14"/>
                <ItemRef ItemOID="IT.MS.CentralProcessing.MSLAT" Mandatory="No" OrderNumber="15"/>
                <ItemRef ItemOID="IT.MS.CentralProcessing.MSDIR" Mandatory="No" OrderNumber="16"/>
                <mdr:Class Name="FINDINGS"/>
            </ItemGroupDef>
            <ItemGroupDef Domain="Microbiology Susceptibility Test" Name="MS.LocalProcessing"
                OID="IGD.MS.LocalProcessing" Purpose="Data Collection" Repeating="No">
                <Description>
                    <TranslatedText xml:lang="en"/>
                </Description>
                <ItemRef ItemOID="IT.MS.LocalProcessing.STUDYID" Mandatory="No" OrderNumber="1"/>
                <ItemRef ItemOID="IT.MS.LocalProcessing.SITEID" Mandatory="No" OrderNumber="2"/>
                <ItemRef ItemOID="IT.MS.LocalProcessing.SUBJID" Mandatory="No" OrderNumber="3"/>
                <ItemRef ItemOID="IT.MS.LocalProcessing.VISIT" Mandatory="No" OrderNumber="4"/>
                <ItemRef ItemOID="IT.MS.LocalProcessing.VISDAT" Mandatory="No" OrderNumber="5"/>
                <ItemRef ItemOID="IT.MS.LocalProcessing.MSPERF" Mandatory="No" OrderNumber="6"/>
                <ItemRef ItemOID="IT.MS.LocalProcessing.MSREFID" Mandatory="No" OrderNumber="7"/>
                <ItemRef ItemOID="IT.MS.LocalProcessing.MSSPID" Mandatory="No" OrderNumber="8"/>
                <ItemRef ItemOID="IT.MS.LocalProcessing.MSLNKID" Mandatory="No" OrderNumber="9"/>
                <ItemRef ItemOID="IT.MS.LocalProcessing.MSDAT" Mandatory="No" OrderNumber="10"/>
                <ItemRef ItemOID="IT.MS.LocalProcessing.MSTIM" Mandatory="No" OrderNumber="11"/>
                <ItemRef ItemOID="IT.MS.LocalProcessing.MSCAT" Mandatory="No" OrderNumber="12"/>
                <ItemRef ItemOID="IT.MS.LocalProcessing.MSSCAT" Mandatory="No" OrderNumber="13"/>
                <ItemRef ItemOID="IT.MS.LocalProcessing.MSTEST" Mandatory="No" OrderNumber="14"/>
                <ItemRef ItemOID="IT.MS.LocalProcessing.MSTSTDTL" Mandatory="No" OrderNumber="15"/>
                <ItemRef ItemOID="IT.MS.LocalProcessing.MSORRES" Mandatory="No" OrderNumber="16"/>
                <ItemRef ItemOID="IT.MS.LocalProcessing.MSORRESU" Mandatory="No" OrderNumber="17"/>
                <ItemRef ItemOID="IT.MS.LocalProcessing.MSCLSIG" Mandatory="No" OrderNumber="18"/>
                <ItemRef ItemOID="IT.MS.LocalProcessing.MSRESCAT" Mandatory="No" OrderNumber="19"/>
                <ItemRef ItemOID="IT.MS.LocalProcessing.MSNAM" Mandatory="No" OrderNumber="20"/>
                <ItemRef ItemOID="IT.MS.LocalProcessing.MSSPEC" Mandatory="No" OrderNumber="21"/>
                <ItemRef ItemOID="IT.MS.LocalProcessing.MSSPCCND" Mandatory="No" OrderNumber="22"/>
                <ItemRef ItemOID="IT.MS.LocalProcessing.MSLOC" Mandatory="No" OrderNumber="23"/>
                <ItemRef ItemOID="IT.MS.LocalProcessing.MSLAT" Mandatory="No" OrderNumber="24"/>
                <ItemRef ItemOID="IT.MS.LocalProcessing.MSDIR" Mandatory="No" OrderNumber="25"/>
                <ItemRef ItemOID="IT.MS.LocalProcessing.MSMETHOD" Mandatory="No" OrderNumber="26"/>
                <ItemRef ItemOID="IT.MS.LocalProcessing.MSEVAL" Mandatory="No" OrderNumber="27"/>
                <ItemRef ItemOID="IT.MS.LocalProcessing.NHOID" Mandatory="No" OrderNumber="28"/>
                <ItemRef ItemOID="IT.MS.LocalProcessing.MSAGENT" Mandatory="No" OrderNumber="29"/>
                <ItemRef ItemOID="IT.MS.LocalProcessing.MSCONC" Mandatory="No" OrderNumber="30"/>
                <ItemRef ItemOID="IT.MS.LocalProcessing.MSCONCU" Mandatory="No" OrderNumber="31"/>
                <mdr:Class Name="FINDINGS"/>
            </ItemGroupDef>
            <ItemGroupDef Domain="Pharmacokinetic Concentrations" Name="PC.FixedTimePoints"
                OID="IGD.PC.FixedTimePoints" Purpose="Data Collection" Repeating="No">
                <Description>
                    <TranslatedText xml:lang="en"/>
                </Description>
                <ItemRef ItemOID="IT.PC.FixedTimePoints.STUDYID" Mandatory="No" OrderNumber="1"/>
                <ItemRef ItemOID="IT.PC.FixedTimePoints.SITEID" Mandatory="No" OrderNumber="2"/>
                <ItemRef ItemOID="IT.PC.FixedTimePoints.SUBJID" Mandatory="No" OrderNumber="3"/>
                <ItemRef ItemOID="IT.PC.FixedTimePoints.VISIT" Mandatory="No" OrderNumber="4"/>
                <ItemRef ItemOID="IT.PC.FixedTimePoints.VISDAT" Mandatory="No" OrderNumber="5"/>
                <ItemRef ItemOID="IT.PC.FixedTimePoints.PCPERF" Mandatory="No" OrderNumber="6"/>
                <ItemRef ItemOID="IT.PC.FixedTimePoints.PCSTAT" Mandatory="No" OrderNumber="7"/>
                <ItemRef ItemOID="IT.PC.FixedTimePoints.PCREASND" Mandatory="No" OrderNumber="8"/>
                <ItemRef ItemOID="IT.PC.FixedTimePoints.PCDAT" Mandatory="No" OrderNumber="9"/>
                <ItemRef ItemOID="IT.PC.FixedTimePoints.PCDATFL" Mandatory="No" OrderNumber="10"/>
                <ItemRef ItemOID="IT.PC.FixedTimePoints.PCTIM" Mandatory="No" OrderNumber="11"/>
                <ItemRef ItemOID="IT.PC.FixedTimePoints.PCTPT" Mandatory="No" OrderNumber="12"/>
                <ItemRef ItemOID="IT.PC.FixedTimePoints.PCFAST" Mandatory="No" OrderNumber="13"/>
                <ItemRef ItemOID="IT.PC.FixedTimePoints.PCCOND" Mandatory="No" OrderNumber="14"/>
                <ItemRef ItemOID="IT.PC.FixedTimePoints.PCREFID" Mandatory="No" OrderNumber="15"/>
                <ItemRef ItemOID="IT.PC.FixedTimePoints.PCSPEC" Mandatory="No" OrderNumber="16"/>
                <ItemRef ItemOID="IT.PC.FixedTimePoints.PCTEST" Mandatory="No" OrderNumber="17"/>
                <ItemRef ItemOID="IT.PC.FixedTimePoints.PCORRES" Mandatory="No" OrderNumber="18"/>
                <ItemRef ItemOID="IT.PC.FixedTimePoints.PCORRESU" Mandatory="No" OrderNumber="19"/>
                <mdr:Class Name="FINDINGS"/>
            </ItemGroupDef>
            <ItemGroupDef Domain="Pharmacokinetic Concentrations" Name="PC.TimeInterval"
                OID="IGD.PC.TimeInterval" Purpose="Data Collection" Repeating="No">
                <Description>
                    <TranslatedText xml:lang="en"/>
                </Description>
                <ItemRef ItemOID="IT.PC.TimeInterval.STUDYID" Mandatory="No" OrderNumber="1"/>
                <ItemRef ItemOID="IT.PC.TimeInterval.SITEID" Mandatory="No" OrderNumber="2"/>
                <ItemRef ItemOID="IT.PC.TimeInterval.SUBJID" Mandatory="No" OrderNumber="3"/>
                <ItemRef ItemOID="IT.PC.TimeInterval.VISIT" Mandatory="No" OrderNumber="4"/>
                <ItemRef ItemOID="IT.PC.TimeInterval.VISDAT" Mandatory="No" OrderNumber="5"/>
                <ItemRef ItemOID="IT.PC.TimeInterval.PCPERF" Mandatory="No" OrderNumber="6"/>
                <ItemRef ItemOID="IT.PC.TimeInterval.PCREASND" Mandatory="No" OrderNumber="7"/>
                <ItemRef ItemOID="IT.PC.TimeInterval.PCDAT" Mandatory="No" OrderNumber="8"/>
                <ItemRef ItemOID="IT.PC.TimeInterval.PCTIM" Mandatory="No" OrderNumber="9"/>
                <ItemRef ItemOID="IT.PC.TimeInterval.PCENDAT" Mandatory="No" OrderNumber="10"/>
                <ItemRef ItemOID="IT.PC.TimeInterval.PCENTIM" Mandatory="No" OrderNumber="11"/>
                <ItemRef ItemOID="IT.PC.TimeInterval.PCTPT" Mandatory="No" OrderNumber="12"/>
                <ItemRef ItemOID="IT.PC.TimeInterval.PCFAST" Mandatory="No" OrderNumber="13"/>
                <ItemRef ItemOID="IT.PC.TimeInterval.PCCOND" Mandatory="No" OrderNumber="14"/>
                <ItemRef ItemOID="IT.PC.TimeInterval.PCREFID" Mandatory="No" OrderNumber="15"/>
                <ItemRef ItemOID="IT.PC.TimeInterval.PCSPEC" Mandatory="No" OrderNumber="16"/>
                <ItemRef ItemOID="IT.PC.TimeInterval.PCTEST" Mandatory="No" OrderNumber="17"/>
                <ItemRef ItemOID="IT.PC.TimeInterval.PCORRES" Mandatory="No" OrderNumber="18"/>
                <ItemRef ItemOID="IT.PC.TimeInterval.PCORRESU" Mandatory="No" OrderNumber="19"/>
                <mdr:Class Name="FINDINGS"/>
            </ItemGroupDef>
            <ItemGroupDef Domain="Physical Examination" Name="PE.Traditional"
                OID="IGD.PE.Traditional" Purpose="Data Collection" Repeating="No">
                <Description>
                    <TranslatedText xml:lang="en"/>
                </Description>
                <ItemRef ItemOID="IT.PE.Traditional.STUDYID" Mandatory="No" OrderNumber="1"/>
                <ItemRef ItemOID="IT.PE.Traditional.SITEID" Mandatory="No" OrderNumber="2"/>
                <ItemRef ItemOID="IT.PE.Traditional.SUBJID" Mandatory="No" OrderNumber="3"/>
                <ItemRef ItemOID="IT.PE.Traditional.VISIT" Mandatory="No" OrderNumber="4"/>
                <ItemRef ItemOID="IT.PE.Traditional.VISDAT" Mandatory="No" OrderNumber="5"/>
                <ItemRef ItemOID="IT.PE.Traditional.PEPERF" Mandatory="No" OrderNumber="6"/>
                <ItemRef ItemOID="IT.PE.Traditional.PECAT" Mandatory="No" OrderNumber="7"/>
                <ItemRef ItemOID="IT.PE.Traditional.PESCAT" Mandatory="No" OrderNumber="8"/>
                <ItemRef ItemOID="IT.PE.Traditional.PEDAT" Mandatory="No" OrderNumber="9"/>
                <ItemRef ItemOID="IT.PE.Traditional.PETIM" Mandatory="No" OrderNumber="10"/>
                <ItemRef ItemOID="IT.PE.Traditional.PESPID" Mandatory="No" OrderNumber="11"/>
                <ItemRef ItemOID="IT.PE.Traditional.PETEST" Mandatory="No" OrderNumber="12"/>
                <ItemRef ItemOID="IT.PE.Traditional.PERES" Mandatory="No" OrderNumber="13"/>
                <ItemRef ItemOID="IT.PE.Traditional.PEDESC" Mandatory="No" OrderNumber="14"/>
                <ItemRef ItemOID="IT.PE.Traditional.PECLSIG" Mandatory="No" OrderNumber="15"/>
                <ItemRef ItemOID="IT.PE.Traditional.PEEVAL" Mandatory="No" OrderNumber="16"/>
                <ItemRef ItemOID="IT.PE.Traditional.PEREASND" Mandatory="No" OrderNumber="17"/>
                <ItemRef ItemOID="IT.PE.Traditional.PEBODSYS" Mandatory="No" OrderNumber="18"/>
                <ItemRef ItemOID="IT.PE.Traditional.PEMODIFY" Mandatory="No" OrderNumber="19"/>
                <ItemRef ItemOID="IT.PE.Traditional.PELOC" Mandatory="No" OrderNumber="20"/>
                <ItemRef ItemOID="IT.PE.Traditional.PELAT" Mandatory="No" OrderNumber="21"/>
                <ItemRef ItemOID="IT.PE.Traditional.PEDIR" Mandatory="No" OrderNumber="22"/>
                <ItemRef ItemOID="IT.PE.Traditional.PEPORTOT" Mandatory="No" OrderNumber="23"/>
                <ItemRef ItemOID="IT.PE.Traditional.PEMETHOD" Mandatory="No" OrderNumber="24"/>
                <mdr:Class Name="FINDINGS"/>
            </ItemGroupDef>
            <ItemGroupDef Domain="Subject Characteristics" Name="SC.HorizontalGeneric"
                OID="IGD.SC.HorizontalGeneric" Purpose="Data Collection" Repeating="No">
                <Description>
                    <TranslatedText xml:lang="en"/>
                </Description>
                <ItemRef ItemOID="IT.SC.STUDYID" Mandatory="No" OrderNumber="1"/>
                <ItemRef ItemOID="IT.SC.SITEID" Mandatory="No" OrderNumber="2"/>
                <ItemRef ItemOID="IT.SC.SUBJID" Mandatory="No" OrderNumber="3"/>
                <ItemRef ItemOID="IT.SC.VISIT" Mandatory="No" OrderNumber="4"/>
                <ItemRef ItemOID="IT.SC.VISDAT" Mandatory="No" OrderNumber="5"/>
                <ItemRef ItemOID="IT.SC.SCCAT" Mandatory="No" OrderNumber="6"/>
                <ItemRef ItemOID="IT.SC.SCSCAT" Mandatory="No" OrderNumber="7"/>
                <ItemRef ItemOID="IT.SC.SCPERF" Mandatory="No" OrderNumber="8"/>
                <ItemRef ItemOID="IT.SC.SCSPID" Mandatory="No" OrderNumber="9"/>
                <ItemRef ItemOID="IT.SC.SCDAT" Mandatory="No" OrderNumber="10"/>
                <ItemRef ItemOID="IT.SC.SCTEST" Mandatory="No" OrderNumber="11"/>
                <ItemRef ItemOID="IT.SC.SCORRES" Mandatory="No" OrderNumber="12"/>
                <ItemRef ItemOID="IT.SC.HorizontalGeneric.STUDYID" Mandatory="No" OrderNumber="13"/>
                <ItemRef ItemOID="IT.SC.HorizontalGeneric.SITEID" Mandatory="No" OrderNumber="14"/>
                <ItemRef ItemOID="IT.SC.HorizontalGeneric.SUBJID" Mandatory="No" OrderNumber="15"/>
                <ItemRef ItemOID="IT.SC.HorizontalGeneric.VISIT" Mandatory="No" OrderNumber="16"/>
                <ItemRef ItemOID="IT.SC.HorizontalGeneric.VISDAT" Mandatory="No" OrderNumber="17"/>
                <ItemRef ItemOID="IT.SC.HorizontalGeneric.[SCTESTCD]_SCCAT" Mandatory="No"
                    OrderNumber="18"/>
                <ItemRef ItemOID="IT.SC.HorizontalGeneric.[SCTESTCD]_SCSCAT" Mandatory="No"
                    OrderNumber="19"/>
                <ItemRef ItemOID="IT.SC.HorizontalGeneric.[SCTESTCD]_SCPERF" Mandatory="No"
                    OrderNumber="20"/>
                <ItemRef ItemOID="IT.SC.HorizontalGeneric.SCGRPID" Mandatory="No" OrderNumber="21"/>
                <ItemRef ItemOID="IT.SC.HorizontalGeneric.[SCTESTCD]_SCORRES" Mandatory="No"
                    OrderNumber="22"/>
                <mdr:Class Name="FINDINGS"/>
            </ItemGroupDef>
            <ItemGroupDef Domain="Vital Signs" Name="VS.HorizontalGeneric"
                OID="IGD.VS.HorizontalGeneric" Purpose="Data Collection" Repeating="No">
                <Description>
                    <TranslatedText xml:lang="en"/>
                </Description>
                <ItemRef ItemOID="IT.VS.STUDYID" Mandatory="No" OrderNumber="1"/>
                <ItemRef ItemOID="IT.VS.SITEID" Mandatory="No" OrderNumber="2"/>
                <ItemRef ItemOID="IT.VS.SUBJID" Mandatory="No" OrderNumber="3"/>
                <ItemRef ItemOID="IT.VS.VISIT" Mandatory="No" OrderNumber="4"/>
                <ItemRef ItemOID="IT.VS.VISDAT" Mandatory="No" OrderNumber="5"/>
                <ItemRef ItemOID="IT.VS.VSPERF" Mandatory="No" OrderNumber="6"/>
                <ItemRef ItemOID="IT.VS.VSDAT" Mandatory="No" OrderNumber="7"/>
                <ItemRef ItemOID="IT.VS.VSTIM" Mandatory="No" OrderNumber="8"/>
                <ItemRef ItemOID="IT.VS.VSSPID" Mandatory="No" OrderNumber="9"/>
                <ItemRef ItemOID="IT.VS.VSTPT" Mandatory="No" OrderNumber="10"/>
                <ItemRef ItemOID="IT.VS.VSCAT" Mandatory="No" OrderNumber="11"/>
                <ItemRef ItemOID="IT.VS.VSSCAT" Mandatory="No" OrderNumber="12"/>
                <ItemRef ItemOID="IT.VS.VSREPNUM" Mandatory="No" OrderNumber="13"/>
                <ItemRef ItemOID="IT.VS.VSTEST" Mandatory="No" OrderNumber="14"/>
                <ItemRef ItemOID="IT.VS.VSSTAT" Mandatory="No" OrderNumber="15"/>
                <ItemRef ItemOID="IT.VS.VSORRES" Mandatory="No" OrderNumber="16"/>
                <ItemRef ItemOID="IT.VS.VSORRESU" Mandatory="No" OrderNumber="17"/>
                <ItemRef ItemOID="IT.VS.VSCLSIG" Mandatory="No" OrderNumber="18"/>
                <ItemRef ItemOID="IT.VS.VSLOC" Mandatory="No" OrderNumber="19"/>
                <ItemRef ItemOID="IT.VS.VSPOS" Mandatory="No" OrderNumber="20"/>
                <ItemRef ItemOID="IT.VS.VSDIR" Mandatory="No" OrderNumber="21"/>
                <ItemRef ItemOID="IT.VS.VSLAT" Mandatory="No" OrderNumber="22"/>
                <ItemRef ItemOID="IT.VS.HorizontalGeneric.STUDYID" Mandatory="No" OrderNumber="23"/>
                <ItemRef ItemOID="IT.VS.HorizontalGeneric.SITEID" Mandatory="No" OrderNumber="24"/>
                <ItemRef ItemOID="IT.VS.HorizontalGeneric.SUBJID" Mandatory="No" OrderNumber="25"/>
                <ItemRef ItemOID="IT.VS.HorizontalGeneric.VISIT" Mandatory="No" OrderNumber="26"/>
                <ItemRef ItemOID="IT.VS.HorizontalGeneric.VISDAT" Mandatory="No" OrderNumber="27"/>
                <ItemRef ItemOID="IT.VS.HorizontalGeneric.[VSTESTCD]_VSPERF" Mandatory="No"
                    OrderNumber="28"/>
                <ItemRef ItemOID="IT.VS.HorizontalGeneric.[VSTESTCD]_VSDAT" Mandatory="No"
                    OrderNumber="29"/>
                <ItemRef ItemOID="IT.VS.HorizontalGeneric.[VSTESTCD]_VSTIM" Mandatory="No"
                    OrderNumber="30"/>
                <ItemRef ItemOID="IT.VS.HorizontalGeneric.VSCAT" Mandatory="No" OrderNumber="31"/>
                <ItemRef ItemOID="IT.VS.HorizontalGeneric.VSSCAT" Mandatory="No" OrderNumber="32"/>
                <ItemRef ItemOID="IT.VS.HorizontalGeneric.VSGRPID" Mandatory="No" OrderNumber="33"/>
                <ItemRef ItemOID="IT.VS.HorizontalGeneric.[VSTESTCD]_VSTPT" Mandatory="No"
                    OrderNumber="34"/>
                <ItemRef ItemOID="IT.VS.HorizontalGeneric.[VSTESTCD]_VSSTAT" Mandatory="No"
                    OrderNumber="35"/>
                <ItemRef ItemOID="IT.VS.HorizontalGeneric.[VSTESTCD]_VSORRES" Mandatory="No"
                    OrderNumber="36"/>
                <ItemRef ItemOID="IT.VS.HorizontalGeneric.[VSTESTCD]_VSORRESU" Mandatory="No"
                    OrderNumber="37"/>
                <ItemRef ItemOID="IT.VS.HorizontalGeneric.[VSTESTCD]_VSCLSIG" Mandatory="No"
                    OrderNumber="38"/>
                <ItemRef ItemOID="IT.VS.HorizontalGeneric.[VSTESTCD]_VSPOS" Mandatory="No"
                    OrderNumber="39"/>
                <ItemRef ItemOID="IT.VS.HorizontalGeneric.[VSTESTCD]_VSLOC" Mandatory="No"
                    OrderNumber="40"/>
                <ItemRef ItemOID="IT.VS.HorizontalGeneric.[VSTESTCD]_VSLAT" Mandatory="No"
                    OrderNumber="41"/>
                <mdr:Class Name="FINDINGS"/>
            </ItemGroupDef>
            <ItemDef DataType="text" Name="STUDYID" OID="IT.CO.STUDYID" mdr:Core="HR"
                mdr:SubmissionDataType="Char">
                <Description>
                    <TranslatedText xml:lang="en">Study Identifier</TranslatedText>
                </Description>
                <Question>
                    <TranslatedText xml:lang="en">What is the study identifier?</TranslatedText>
                </Question>
                <Alias Context="sdtmigDatasetMappingTarget_0" Name="CO.STUDYID"/>
                <mdr:Prompt>
                    <TranslatedText xml:lang="en">[Protocol/Study]</TranslatedText>
                </mdr:Prompt>
                <mdr:ImplementationNotes>
                    <TranslatedText xml:lang="en">While this field is not typically captured on a
                        CRF, it should be displayed clearly on the CRF and/or the EDC system. This
                        field can be included into the database or populated during SDTM-based
                        dataset creation before submission.</TranslatedText>
                </mdr:ImplementationNotes>
                <mdr:MappingInstructions>
                    <TranslatedText xml:lang="en">Maps directly to the SDTMIG variable listed in the
                        column with the heading SDTMIG Target.</TranslatedText>
                </mdr:MappingInstructions>
                <mdr:Definition>
                    <TranslatedText xml:lang="en">A unique identifier for a study.</TranslatedText>
                </mdr:Definition>
            </ItemDef>
            <ItemDef DataType="text" Name="SITEID" OID="IT.CO.SITEID" mdr:Core="HR"
                mdr:SubmissionDataType="Char">
                <Description>
                    <TranslatedText xml:lang="en">Study Site Identifier</TranslatedText>
                </Description>
                <Question>
                    <TranslatedText xml:lang="en">What is the site identifier?</TranslatedText>
                </Question>
                <Alias Context="sdtmigDatasetMappingTarget_0" Name="DM.SITEID"/>
                <mdr:Prompt>
                    <TranslatedText xml:lang="en">Site (Identifier)</TranslatedText>
                </mdr:Prompt>
                <mdr:ImplementationNotes>
                    <TranslatedText xml:lang="en">Paper: This is typically preprinted in the header
                        of each CRF page for single site studies. For studies with multiple sites,
                        this field may be left blank so that the number can be recorded by the site,
                        or it may be preprinted for the CRFs that are shipped to each site. EDC:
                        This should be prepopulated.</TranslatedText>
                </mdr:ImplementationNotes>
                <mdr:MappingInstructions>
                    <TranslatedText xml:lang="en">Maps directly to the SDTMIG variable listed in the
                        column with the heading SDTMIG Target.</TranslatedText>
                </mdr:MappingInstructions>
                <mdr:Definition>
                    <TranslatedText xml:lang="en">A unique identifier for a site within a
                        study.</TranslatedText>
                </mdr:Definition>
            </ItemDef>
            <ItemDef DataType="text" Name="SUBJID" OID="IT.CO.SUBJID" mdr:Core="HR"
                mdr:SubmissionDataType="Char">
                <Description>
                    <TranslatedText xml:lang="en">Subject Identifier for the Study</TranslatedText>
                </Description>
                <Question>
                    <TranslatedText xml:lang="en">What [is/was] the (study) [subject/participant]
                        identifier?</TranslatedText>
                </Question>
                <Alias Context="sdtmigDatasetMappingTarget_0" Name="DM.SUBJID"/>
                <mdr:Prompt>
                    <TranslatedText xml:lang="en">[Subject/Participant]
                        (Identifier)</TranslatedText>
                </mdr:Prompt>
                <mdr:CRFCompletionInstructions>
                    <TranslatedText xml:lang="en">Record the identifier for the
                        subject.</TranslatedText>
                </mdr:CRFCompletionInstructions>
                <mdr:ImplementationNotes>
                    <TranslatedText xml:lang="en">Paper: This is typically recorded in the header of
                        each CRF page. EDC: The subject identifiers may be system generated. This
                        CDASH variable is typically collected in all CDASH domains. However, this
                        CDASH variable is populated only in the SDTMIG DM domain. For more
                        information, refer to the SDTM Implementation Guide.</TranslatedText>
                </mdr:ImplementationNotes>
                <mdr:MappingInstructions>
                    <TranslatedText xml:lang="en">Maps directly to the SDTMIG variable listed in the
                        column with the heading SDTMIG Target.</TranslatedText>
                </mdr:MappingInstructions>
                <mdr:Definition>
                    <TranslatedText xml:lang="en">A unique subject identifier within a site and a
                        study.</TranslatedText>
                </mdr:Definition>
            </ItemDef>
            <ItemDef DataType="text" Name="COVAL" OID="IT.CO.COVAL" mdr:Core="O"
                mdr:SubmissionDataType="Char">
                <Description>
                    <TranslatedText xml:lang="en">Comment</TranslatedText>
                </Description>
                <Question>
                    <TranslatedText xml:lang="en">[protocol-specified targeted
                        question]</TranslatedText>
                </Question>
                <Alias Context="sdtmigDatasetMappingTarget_0" Name="CO.COVAL"/>
                <mdr:Prompt>
                    <TranslatedText xml:lang="en">[abbreviated version of the protocol-specified
                        targeted question]</TranslatedText>
                </mdr:Prompt>
                <mdr:CRFCompletionInstructions>
                    <TranslatedText xml:lang="en">[protocol specific]</TranslatedText>
                </mdr:CRFCompletionInstructions>
                <mdr:ImplementationNotes>
                    <TranslatedText xml:lang="en">If an additional free-text field is needed to
                        provide more information about a particular record, use the COVAL variable
                        to collect the free text, and associate the free text (comment) with the
                        original record using RDOMAIN, IDVAR, IDVARVAL.</TranslatedText>
                </mdr:ImplementationNotes>
                <mdr:MappingInstructions>
                    <TranslatedText xml:lang="en">Maps directly to the SDTMIG variable listed in the
                        column with the heading SDTMIG Target. RDOMAIN contains the domain to which
                        is related to the comment.</TranslatedText>
                </mdr:MappingInstructions>
                <mdr:Definition>
                    <TranslatedText xml:lang="en">A free text comment.</TranslatedText>
                </mdr:Definition>
            </ItemDef>
            <ItemDef DataType="text" Name="STUDYID" OID="IT.DM.STUDYID" mdr:Core="HR"
                mdr:SubmissionDataType="Char">
                <Description>
                    <TranslatedText xml:lang="en">Study Identifier</TranslatedText>
                </Description>
                <Question>
                    <TranslatedText xml:lang="en">What is the study identifier?</TranslatedText>
                </Question>
                <Alias Context="sdtmigDatasetMappingTarget_0" Name="DM.STUDYID"/>
                <mdr:Prompt>
                    <TranslatedText xml:lang="en">[Protocol/Study]</TranslatedText>
                </mdr:Prompt>
                <mdr:ImplementationNotes>
                    <TranslatedText xml:lang="en">While this field is not typically captured on a
                        CRF, it should be displayed clearly on the CRF and/or the EDC system. This
                        field can be included into the database or populated during SDTM-based
                        dataset creation before submission.</TranslatedText>
                </mdr:ImplementationNotes>
                <mdr:MappingInstructions>
                    <TranslatedText xml:lang="en">Maps directly to the SDTMIG variable listed in the
                        column with the heading SDTMIG Target.</TranslatedText>
                </mdr:MappingInstructions>
                <mdr:Definition>
                    <TranslatedText xml:lang="en">A unique identifier for a study.</TranslatedText>
                </mdr:Definition>
            </ItemDef>
            <ItemDef DataType="text" Name="SITEID" OID="IT.DM.SITEID" mdr:Core="HR"
                mdr:SubmissionDataType="Char">
                <Description>
                    <TranslatedText xml:lang="en">Study Site Identifier</TranslatedText>
                </Description>
                <Question>
                    <TranslatedText xml:lang="en">What is the site identifier?</TranslatedText>
                </Question>
                <Alias Context="sdtmigDatasetMappingTarget_0" Name="DM.SITEID"/>
                <mdr:Prompt>
                    <TranslatedText xml:lang="en">Site (Identifier)</TranslatedText>
                </mdr:Prompt>
                <mdr:ImplementationNotes>
                    <TranslatedText xml:lang="en">Paper: This is typically preprinted in the header
                        of each CRF page for single site studies. For studies with multiple sites,
                        this field may be left blank so that the number can be recorded by the site,
                        or it may be preprinted for the CRFs that are shipped to each site. EDC:
                        This should be prepopulated.</TranslatedText>
                </mdr:ImplementationNotes>
                <mdr:MappingInstructions>
                    <TranslatedText xml:lang="en">Maps directly to the SDTMIG variable listed in the
                        column with the heading SDTMIG Target.</TranslatedText>
                </mdr:MappingInstructions>
                <mdr:Definition>
                    <TranslatedText xml:lang="en">A unique identifier for a site within a
                        study.</TranslatedText>
                </mdr:Definition>
            </ItemDef>
            <ItemDef DataType="text" Name="SUBJID" OID="IT.DM.SUBJID" mdr:Core="HR"
                mdr:SubmissionDataType="Char">
                <Description>
                    <TranslatedText xml:lang="en">Subject Identifier for the Study</TranslatedText>
                </Description>
                <Question>
                    <TranslatedText xml:lang="en">What [is/was] the (study) [subject/participant]
                        identifier?</TranslatedText>
                </Question>
                <Alias Context="sdtmigDatasetMappingTarget_0" Name="DM.SUBJID"/>
                <mdr:Prompt>
                    <TranslatedText xml:lang="en">[Subject/Participant]
                        (Identifier)</TranslatedText>
                </mdr:Prompt>
                <mdr:CRFCompletionInstructions>
                    <TranslatedText xml:lang="en">Record the identifier for the
                        subject.</TranslatedText>
                </mdr:CRFCompletionInstructions>
                <mdr:ImplementationNotes>
                    <TranslatedText xml:lang="en">Paper: This is typically recorded in the header of
                        each CRF page. EDC: The subject identifiers may be system generated. This
                        CDASH variable is typically collected in all CDASH domains. However, this
                        CDASH variable is populated only in the SDTMIG DM domain. For more
                        information, refer to the SDTM Implementation Guide.</TranslatedText>
                </mdr:ImplementationNotes>
                <mdr:MappingInstructions>
                    <TranslatedText xml:lang="en">Maps directly to the SDTMIG variable listed in the
                        column with the heading SDTMIG Target.</TranslatedText>
                </mdr:MappingInstructions>
                <mdr:Definition>
                    <TranslatedText xml:lang="en">A unique subject identifier within a site and a
                        study.</TranslatedText>
                </mdr:Definition>
            </ItemDef>
            <ItemDef DataType="text" Name="BRTHDAT" OID="IT.DM.BRTHDAT" mdr:Core="R/C"
                mdr:SubmissionDataType="Char">
                <Description>
                    <TranslatedText xml:lang="en">Birth Date</TranslatedText>
                </Description>
                <Question>
                    <TranslatedText xml:lang="en">What is the subject's date of
                        birth?</TranslatedText>
                </Question>
                <Alias Context="sdtmigDatasetMappingTarget_0" Name="DM.BRTHDTC"/>
                <mdr:Prompt>
                    <TranslatedText xml:lang="en">Birth Date</TranslatedText>
                </mdr:Prompt>
                <mdr:CRFCompletionInstructions>
                    <TranslatedText xml:lang="en">Record the date of birth to the level of precision
                        known (e.g., day/month/year, year, month/year, etc.) in this format
                        (DD-MON-YYYY).</TranslatedText>
                </mdr:CRFCompletionInstructions>
                <mdr:ImplementationNotes>
                    <TranslatedText xml:lang="en">BRTHDAT is the collected field used for recording
                        the full birth date. The sponsor may choose to database the date of birth as
                        a single variable (BRTHDAT), or as separate variables for each component of
                        the date/time (BRTHYY, BRTHMO, BRTHDD, BRTHTIM). The sponsor may choose a
                        method based on database considerations, or for regulatory reasons. It is
                        expected that what is collected for BRTHDAT (complete date or whichever
                        components are collected) is reported in the SDTMIG variable BRTHDTC in the
                        ISO 8601 format. If data are collected in a manner resulting in a reduced
                        precision level, then the AGE (SDTM expected variable), if not collected on
                        the CRF, should be derived using a documented algorithm that describes how
                        the age was determined and/or imputed for those birth dates collected with
                        reduced precision.</TranslatedText>
                </mdr:ImplementationNotes>
                <mdr:MappingInstructions>
                    <TranslatedText xml:lang="en">This does not map directly to an SDTMIG variable.
                        For the SDTM submission dataset, concatenate all collected CDASH DATE and
                        TIME components and populate the SDTMIG variable BRTHDTC in ISO 8601
                        format.</TranslatedText>
                </mdr:MappingInstructions>
                <mdr:Definition>
                    <TranslatedText xml:lang="en">A subject's date of birth (with or without the
                        time of birth). The complete Date of Birth is made from the temporal
                        components of Birth Year, Birth Month, Birth Day and Birth
                        Time.</TranslatedText>
                </mdr:Definition>
            </ItemDef>
            <ItemDef DataType="text" Name="BRTHDD" OID="IT.DM.BRTHDD" mdr:Core="R/C"
                mdr:SubmissionDataType="Char">
                <Description>
                    <TranslatedText xml:lang="en">Birth Day</TranslatedText>
                </Description>
                <Question>
                    <TranslatedText xml:lang="en">What is the subject's day of
                        birth?</TranslatedText>
                </Question>
                <Alias Context="sdtmigDatasetMappingTarget_0" Name="DM.BRTHDTC"/>
                <mdr:Prompt>
                    <TranslatedText xml:lang="en">Birth Day</TranslatedText>
                </mdr:Prompt>
                <mdr:CRFCompletionInstructions>
                    <TranslatedText xml:lang="en">Record the subject's day of birth (e.g., 01 or
                        31).</TranslatedText>
                </mdr:CRFCompletionInstructions>
                <mdr:ImplementationNotes>
                    <TranslatedText xml:lang="en">Day of Birth is the collected variable used for
                        recording the day component of the Date of Birth. The sponsor may choose to
                        database the date of birth as a single variable (BRTHDAT), or as separate
                        variables for each component of the date/time (BRTHYY, BRTHMO, BRTHDD,
                        BRTHTIM). The sponsor may choose a method based on database considerations,
                        or for regulatory reasons. It is expected that what is collected for BRTHDAT
                        (complete date or whichever components are collected) is reported in the
                        SDTMIG variable BRTHDTC in the ISO 8601 format. If data are collected in a
                        manner resulting in a reduced precision level, then the AGE (SDTM expected
                        variable), if not collected on the CRF, should be derived using a documented
                        algorithm that describes how the age was derived and/or imputed for those
                        birth dates collected with reduced precision.</TranslatedText>
                </mdr:ImplementationNotes>
                <mdr:MappingInstructions>
                    <TranslatedText xml:lang="en">This does not map directly to an SDTMIG variable.
                        For the SDTM submission dataset, concatenate all collected CDASH DATE and
                        TIME components and populate the SDTMIG variable BRTHDTC in ISO 8601
                        format.</TranslatedText>
                </mdr:MappingInstructions>
                <mdr:Definition>
                    <TranslatedText xml:lang="en">Day of birth of the subject in an unambiguous date
                        format (e.g., DD).</TranslatedText>
                </mdr:Definition>
            </ItemDef>
            <ItemDef DataType="text" Name="BRTHMO" OID="IT.DM.BRTHMO" mdr:Core="R/C"
                mdr:SubmissionDataType="Char">
                <Description>
                    <TranslatedText xml:lang="en">Birth Month</TranslatedText>
                </Description>
                <Question>
                    <TranslatedText xml:lang="en">What is the subject's month of
                        birth?</TranslatedText>
                </Question>
                <Alias Context="sdtmigDatasetMappingTarget_0" Name="DM.BRTHDTC"/>
                <mdr:Prompt>
                    <TranslatedText xml:lang="en">Birth Month</TranslatedText>
                </mdr:Prompt>
                <mdr:CRFCompletionInstructions>
                    <TranslatedText xml:lang="en">Record the subject's month of birth [e.g., (in
                        local language short month format) (JAN-DEC) or (ENE-DIE) or (JAN-DEZ),
                        etc.].</TranslatedText>
                </mdr:CRFCompletionInstructions>
                <mdr:ImplementationNotes>
                    <TranslatedText xml:lang="en">Month of Birth is the collected variable used for
                        recording the month component of the Date of Birth. The sponsor may choose
                        to database the date of birth as a single variable (BRTHDAT), or as separate
                        variables for each component of the date/time (BRTHYY, BRTHMO, BRTHDD,
                        BRTHTIM). The sponsor may choose a method based on database considerations,
                        or for regulatory reasons. It is expected that what is collected for BRTHDAT
                        (complete date or whichever components are collected) is reported in the
                        SDTMIG variable BRTHDTC in the ISO 8601 format. If data are collected in a
                        manner resulting in a reduced precision level, then the AGE (SDTM expected
                        variable), if not collected on the CRF, should be derived using a documented
                        algorithm that describes how the age was derived and/or imputed for those
                        birth dates collected with reduced precision.</TranslatedText>
                </mdr:ImplementationNotes>
                <mdr:MappingInstructions>
                    <TranslatedText xml:lang="en">This does not map directly to an SDTMIG variable.
                        For the SDTM submission dataset, concatenate all collected CDASH DATE and
                        TIME components and populate the SDTMIG variable BRTHDTC in ISO 8601
                        format.</TranslatedText>
                </mdr:MappingInstructions>
                <mdr:Definition>
                    <TranslatedText xml:lang="en">Month of birth of the subject in an unambiguous
                        date format (e.g., MMM).</TranslatedText>
                </mdr:Definition>
            </ItemDef>
            <ItemDef DataType="text" Name="BRTHYY" OID="IT.DM.BRTHYY" mdr:Core="R/C"
                mdr:SubmissionDataType="Char">
                <Description>
                    <TranslatedText xml:lang="en">Birth Year</TranslatedText>
                </Description>
                <Question>
                    <TranslatedText xml:lang="en">What is the subject's year of
                        birth?</TranslatedText>
                </Question>
                <Alias Context="sdtmigDatasetMappingTarget_0" Name="DM.BRTHDTC"/>
                <mdr:Prompt>
                    <TranslatedText xml:lang="en">Birth Year</TranslatedText>
                </mdr:Prompt>
                <mdr:CRFCompletionInstructions>
                    <TranslatedText xml:lang="en">Record the subject's year of birth (e.g., YYYY, a
                        four-digit year).</TranslatedText>
                </mdr:CRFCompletionInstructions>
                <mdr:ImplementationNotes>
                    <TranslatedText xml:lang="en">Year of Birth is the collected variable used for
                        recording the year component of the Date of Birth. The sponsor may choose to
                        database the date of birth as a single variable (BRTHDAT), or as separate
                        variables for each component of the date/time (BRTHYY, BRTHMO, BRTHDD,
                        BRTHTIM). The sponsor may choose a method based on database considerations,
                        or for regulatory reasons. It is expected that what is collected for BRTHDAT
                        (complete date or whichever components are collected) is reported in the
                        SDTMIG variable BRTHDTC in the ISO 8601 format. If data are collected in a
                        manner resulting in a reduced precision level, then the AGE (SDTM expected
                        variable), if not collected on the CRF, should be derived using a documented
                        algorithm that describes how the age was derived and/or imputed for those
                        birth dates collected with reduced precision.</TranslatedText>
                </mdr:ImplementationNotes>
                <mdr:MappingInstructions>
                    <TranslatedText xml:lang="en">This does not map directly to an SDTMIG variable.
                        For the SDTM submission dataset, concatenate all collected CDASH DATE and
                        TIME components and populate the SDTMIG variable BRTHDTC in ISO 8601
                        format.</TranslatedText>
                </mdr:MappingInstructions>
                <mdr:Definition>
                    <TranslatedText xml:lang="en">The year of birth of the subject in an unambiguous
                        date format (e.g., YYYY).</TranslatedText>
                </mdr:Definition>
            </ItemDef>
            <ItemDef DataType="text" Name="BRTHTIM" OID="IT.DM.BRTHTIM" mdr:Core="O"
                mdr:SubmissionDataType="Char">
                <Description>
                    <TranslatedText xml:lang="en">Birth Time</TranslatedText>
                </Description>
                <Question>
                    <TranslatedText xml:lang="en">What is the subject's time of
                        birth?</TranslatedText>
                </Question>
                <Alias Context="sdtmigDatasetMappingTarget_0" Name="DM.BRTHDTC"/>
                <mdr:Prompt>
                    <TranslatedText xml:lang="en">Birth Time</TranslatedText>
                </mdr:Prompt>
                <mdr:CRFCompletionInstructions>
                    <TranslatedText xml:lang="en">Record the time of birth (as completely as
                        possible).</TranslatedText>
                </mdr:CRFCompletionInstructions>
                <mdr:ImplementationNotes>
                    <TranslatedText xml:lang="en">The level of detail collected by Time of Birth may
                        be necessary for analysis for some pediatric, natal or neonatal studies. The
                        sponsor may choose to database the date of birth as a single variable
                        (BRTHDAT), or as separate variables for each component of the date/time
                        (BRTHYY, BRTHMO, BRTHDD, BRTHTIM). The sponsor may choose a method based on
                        database considerations, or for regulatory reasons. It is expected that what
                        is collected for BRTHDAT (complete date or whichever components are
                        collected) is reported in the SDTMIG variable BRTHDTC in the ISO 8601
                        format. If data are collected in a manner resulting in a reduced precision
                        level, then the AGE (SDTMIG expected variable), if not collected on the CRF,
                        should be derived using a documented algorithm that describes how the age
                        was derived and/or imputed for those birth dates collected with reduced
                        precision.</TranslatedText>
                </mdr:ImplementationNotes>
                <mdr:MappingInstructions>
                    <TranslatedText xml:lang="en">This does not map directly to an SDTMIG variable.
                        For the SDTM submission dataset, concatenate all collected CDASH DATE and
                        TIME components and populate the SDTMIG variable BRTHDTC in ISO 8601
                        format.</TranslatedText>
                </mdr:MappingInstructions>
                <mdr:Definition>
                    <TranslatedText xml:lang="en">The time of birth of the subject in an unambiguous
                        time format (e.g., hh:mm)</TranslatedText>
                </mdr:Definition>
            </ItemDef>
            <ItemDef DataType="double" Name="AGE" OID="IT.DM.AGE" mdr:Core="O"
                mdr:SubmissionDataType="Num">
                <Description>
                    <TranslatedText xml:lang="en">Age</TranslatedText>
                </Description>
                <Question>
                    <TranslatedText xml:lang="en">What is the subject's age?</TranslatedText>
                </Question>
                <Alias Context="sdtmigDatasetMappingTarget_0" Name="DM.AGE"/>
                <mdr:Prompt>
                    <TranslatedText xml:lang="en">Age</TranslatedText>
                </mdr:Prompt>
                <mdr:CRFCompletionInstructions>
                    <TranslatedText xml:lang="en">Record age of the subject.</TranslatedText>
                </mdr:CRFCompletionInstructions>
                <mdr:ImplementationNotes>
                    <TranslatedText xml:lang="en">If Age is collected, it should be collected as a
                        number and, to be correctly interpreted, the age value should be associated
                        to a variable for the Age Unit. It may be necessary to know when the age was
                        collected as an age may need to be recalculated for analysis, such as
                        deriving age at a reference start time (RFSTDTC for SDTM). BRTHDTC may not
                        be available in all cases (due to subject privacy concerns).If AGE is
                        collected, then it is recommended that the date of collection also be
                        recorded, either separately or by association to the date of the
                        visit.</TranslatedText>
                </mdr:ImplementationNotes>
                <mdr:MappingInstructions>
                    <TranslatedText xml:lang="en">Maps directly to the SDTMIG variable listed in the
                        column with the heading SDTMIG Target.</TranslatedText>
                </mdr:MappingInstructions>
                <mdr:Definition>
                    <TranslatedText xml:lang="en">The age of the subject expressed in
                        AGEU.</TranslatedText>
                </mdr:Definition>
            </ItemDef>
            <ItemDef DataType="text" Name="AGEU" OID="IT.DM.AGEU" mdr:Core="O"
                mdr:SubmissionDataType="Char">
                <Description>
                    <TranslatedText xml:lang="en">Age Units</TranslatedText>
                </Description>
                <Question>
                    <TranslatedText xml:lang="en">What is the age unit used?</TranslatedText>
                </Question>
                <CodeListRef CodeListOID="CL.C66781"/>
                <Alias Context="sdtmigDatasetMappingTarget_0" Name="DM.AGEU"/>
                <mdr:Prompt>
                    <TranslatedText xml:lang="en">Age Unit</TranslatedText>
                </mdr:Prompt>
                <mdr:CRFCompletionInstructions>
                    <TranslatedText xml:lang="en">Record the appropriate age unit (e.g., YEARS,
                        MONTHS, WEEKS, etc.).</TranslatedText>
                </mdr:CRFCompletionInstructions>
                <mdr:ImplementationNotes>
                    <TranslatedText xml:lang="en">If Age is captured on the CRF, the age unit must
                        be known to make the age value meaningful. The age unit might be collected
                        on the CRF, in those cases where the protocol allows for any age group, or
                        it may be preprinted on the CRF (typically with the unit of
                        "years").</TranslatedText>
                </mdr:ImplementationNotes>
                <mdr:MappingInstructions>
                    <TranslatedText xml:lang="en">Maps directly to the SDTMIG variable listed in the
                        column with the heading SDTMIG Target.</TranslatedText>
                </mdr:MappingInstructions>
                <mdr:Definition>
                    <TranslatedText xml:lang="en">Those units of time that are routinely used to
                        express the age of a person.</TranslatedText>
                </mdr:Definition>
            </ItemDef>
            <ItemDef DataType="text" Name="DMDAT" OID="IT.DM.DMDAT" mdr:Core="R/C"
                mdr:SubmissionDataType="Char">
                <Description>
                    <TranslatedText xml:lang="en">Demographics Collection Date</TranslatedText>
                </Description>
                <Question>
                    <TranslatedText xml:lang="en">What is the date of collection?</TranslatedText>
                </Question>
                <Alias Context="sdtmigDatasetMappingTarget_0" Name="DM.DMDTC"/>
                <mdr:Prompt>
                    <TranslatedText xml:lang="en">Collection Date</TranslatedText>
                </mdr:Prompt>
                <mdr:CRFCompletionInstructions>
                    <TranslatedText xml:lang="en">Record the date of collection using this format
                        (DD-MON-YYYY).</TranslatedText>
                </mdr:CRFCompletionInstructions>
                <mdr:ImplementationNotes>
                    <TranslatedText xml:lang="en">The date of collection may be determined from the
                        date of visit; if so, a separate date field is not needed.</TranslatedText>
                </mdr:ImplementationNotes>
                <mdr:MappingInstructions>
                    <TranslatedText xml:lang="en">This does not map directly to an SDTMIG variable.
                        For the SDTM submission dataset, concatenate all collected CDASH DATE and
                        TIME components and populate the SDTMIG variable DMDTC in ISO 8601
                        format.</TranslatedText>
                </mdr:MappingInstructions>
                <mdr:Definition>
                    <TranslatedText xml:lang="en">The date of collection represented in an
                        unambiguous date format (e.g., DD-MON-YYYY)</TranslatedText>
                </mdr:Definition>
            </ItemDef>
            <ItemDef DataType="text" Name="SEX" OID="IT.DM.SEX" mdr:Core="R/C"
                mdr:SubmissionDataType="Char">
                <Description>
                    <TranslatedText xml:lang="en">Sex</TranslatedText>
                </Description>
                <Question>
                    <TranslatedText xml:lang="en">What is the sex of the subject?</TranslatedText>
                </Question>
                <CodeListRef CodeListOID="CL.C66731"/>
                <Alias Context="sdtmigDatasetMappingTarget_0" Name="DM.SEX"/>
                <mdr:Prompt>
                    <TranslatedText xml:lang="en">Sex</TranslatedText>
                </mdr:Prompt>
                <mdr:CRFCompletionInstructions>
                    <TranslatedText xml:lang="en">Record the appropriate sex (e.g., F (female), M
                        (male).</TranslatedText>
                </mdr:CRFCompletionInstructions>
                <mdr:ImplementationNotes>
                    <TranslatedText xml:lang="en">Collect the subject's sex or gender, as reported
                        by the investigator. This is a phenotypic assessment and not a genotypic
                        assessment.</TranslatedText>
                </mdr:ImplementationNotes>
                <mdr:MappingInstructions>
                    <TranslatedText xml:lang="en">Maps directly to the SDTMIG variable listed in the
                        column with the heading SDTMIG Target.</TranslatedText>
                </mdr:MappingInstructions>
                <mdr:Definition>
                    <TranslatedText xml:lang="en">Sex of the subject as determined by the
                        investigator.</TranslatedText>
                </mdr:Definition>
            </ItemDef>
            <ItemDef DataType="text" Name="ETHNIC" OID="IT.DM.ETHNIC" mdr:Core="O"
                mdr:SubmissionDataType="Char">
                <Description>
                    <TranslatedText xml:lang="en">Ethnicity</TranslatedText>
                </Description>
                <Question>
                    <TranslatedText xml:lang="en">Do you consider yourself Hispanic/Latino or not
                        Hispanic/Latino?</TranslatedText>
                </Question>
                <CodeListRef CodeListOID="CL.C66790"/>
                <Alias Context="sdtmigDatasetMappingTarget_0" Name="DM.ETHNIC"/>
                <mdr:Prompt>
                    <TranslatedText xml:lang="en">Ethnicity</TranslatedText>
                </mdr:Prompt>
                <mdr:CRFCompletionInstructions>
                    <TranslatedText xml:lang="en">Study participants should self-report ethnicity,
                        with ethnicity being asked about before race.</TranslatedText>
                </mdr:CRFCompletionInstructions>
                <mdr:ImplementationNotes>
                    <TranslatedText xml:lang="en">For use when values are being collected using the
                        exact non-extensible ETHNIC codelist (C66790) values. Sponsors should refer
                        to the FDA's Collection of Race and Ethnicity Data in Clinical Trials
                        guidance regarding the collection of ethnicity
                        (http://www.fda.gov/).</TranslatedText>
                </mdr:ImplementationNotes>
                <mdr:MappingInstructions>
                    <TranslatedText xml:lang="en">Maps directly to the SDTMIG variable listed in the
                        column with the heading SDTMIG Target.</TranslatedText>
                </mdr:MappingInstructions>
                <mdr:Definition>
                    <TranslatedText xml:lang="en">A social group characterized by a distinctive
                        social and cultural tradition maintained from generation to generation, a
                        common history and origin and a sense of identification with the group;
                        members of the group have distinctive features in their way of life, shared
                        experiences and often a common genetic heritage; these features may be
                        reflected in their experience of health and disease.</TranslatedText>
                </mdr:Definition>
            </ItemDef>
            <ItemDef DataType="text" Name="CETHNIC" OID="IT.DM.CETHNIC" mdr:Core="O"
                mdr:SubmissionDataType="Char">
                <Description>
                    <TranslatedText xml:lang="en">Collected Ethnicity</TranslatedText>
                </Description>
                <Question>
                    <TranslatedText xml:lang="en">What is the ethnicity of the
                        subject?</TranslatedText>
                </Question>
                <CodeListRef CodeListOID="CL.C128690"/>
                <Alias Context="sdtmigDatasetMappingTarget_0" Name="SUPPQUAL.QVAL"/>
                <mdr:Prompt>
                    <TranslatedText xml:lang="en">Ethnicity</TranslatedText>
                </mdr:Prompt>
                <mdr:CRFCompletionInstructions>
                    <TranslatedText xml:lang="en">Study participants should self-report ethnicity,
                        with ethnicity being asked about before race.</TranslatedText>
                </mdr:CRFCompletionInstructions>
                <mdr:ImplementationNotes>
                    <TranslatedText xml:lang="en">Use when values are collected using the NCI
                        Thesaurus codelist for Ethnicity As Collected (C128690), the extended HL7
                        hierarchy of codelist values, or other regulatory agency-specific controlled
                        terminology for Ethnic Group. Sponsors may append a suffix to denote
                        multiple collected ethnicities (e.g. CETHNIC1, CETHNIC2).</TranslatedText>
                </mdr:ImplementationNotes>
                <mdr:MappingInstructions>
                    <TranslatedText xml:lang="en">This does not map directly to an SDTMIG variable.
                        This information could be submitted in a SUPPDM dataset as the value of
                        SUPPDM.QVAL where SUPPDM.QNAM = "CETHNIC" and SUPPDM.QLABEL= "Collected
                        Ethnicity". See SDTMIG v3.2 Section 5, DM Domain. Refer to the current SDTM
                        and SDTMIG for instructions on placement of non-standard variables in SDTM
                        domains.</TranslatedText>
                </mdr:MappingInstructions>
                <mdr:Definition>
                    <TranslatedText xml:lang="en">A social group characterized by a distinctive
                        social and cultural tradition maintained from generation to generation, a
                        common history and origin and a sense of identification with the group;
                        members of the group have distinctive features in their way of life, shared
                        experiences and often a common genetic heritage; these features may be
                        reflected in their experience of health and disease.</TranslatedText>
                </mdr:Definition>
            </ItemDef>
            <ItemDef DataType="text" Name="RACE" OID="IT.DM.RACE" mdr:Core="R/C"
                mdr:SubmissionDataType="Char">
                <Description>
                    <TranslatedText xml:lang="en">Race</TranslatedText>
                </Description>
                <Question>
                    <TranslatedText xml:lang="en">Which of the following five racial designations
                        best describes you? (More than one choice is acceptable.)</TranslatedText>
                </Question>
                <CodeListRef CodeListOID="CL.C74457"/>
                <Alias Context="sdtmigDatasetMappingTarget_0" Name="DM.RACE"/>
                <mdr:Prompt>
                    <TranslatedText xml:lang="en">Race</TranslatedText>
                </mdr:Prompt>
                <mdr:CRFCompletionInstructions>
                    <TranslatedText xml:lang="en">Study participants should self-report race, with
                        race being asked about after ethnicity.</TranslatedText>
                </mdr:CRFCompletionInstructions>
                <mdr:ImplementationNotes>
                    <TranslatedText xml:lang="en">Use RACE when the 5 designations for race used by
                        the FDA are collected (American Indian or Alaska Native; Asian; Black or
                        African American; Native Hawaiian or Other Pacific Islander ; White).*
                        Sponsors should refer to the FDA Guidance. See SDTMIG v3.2 Section 5, DM
                        Domain. *For studies where data are collected outside the US, the
                        recommended categories are the same except for Black instead of Black or
                        African American. If multiple races are collected, an alternate
                        sponsor-defined variable structure would be required. Sponsors may record
                        multiple self-reported races for a subject by appending a suffix to denote
                        multiple collected races (e.g. RACE1, RACE2) and populate RACE with the
                        value MULTIPLE.</TranslatedText>
                </mdr:ImplementationNotes>
                <mdr:MappingInstructions>
                    <TranslatedText xml:lang="en">Maps directly to the SDTMIG variable listed in the
                        column with the heading SDTMIG Target.</TranslatedText>
                </mdr:MappingInstructions>
                <mdr:Definition>
                    <TranslatedText xml:lang="en">An arbitrary classification based on physical
                        characteristics; a group of persons related by common descent or heredity
                        (U.S. Center for Disease Control).</TranslatedText>
                </mdr:Definition>
            </ItemDef>
            <ItemDef DataType="text" Name="CRACE" OID="IT.DM.CRACE" mdr:Core="R/C"
                mdr:SubmissionDataType="Char">
                <Description>
                    <TranslatedText xml:lang="en">Collected Race</TranslatedText>
                </Description>
                <Question>
                    <TranslatedText xml:lang="en">Which of the following racial designations best
                        describes you? (More than one choice is acceptable.)</TranslatedText>
                </Question>
                <CodeListRef CodeListOID="CL.C128689"/>
                <Alias Context="sdtmigDatasetMappingTarget_0" Name="SUPPQUAL.QVAL"/>
                <mdr:Prompt>
                    <TranslatedText xml:lang="en">Race</TranslatedText>
                </mdr:Prompt>
                <mdr:CRFCompletionInstructions>
                    <TranslatedText xml:lang="en">Study participants should self-report race, with
                        race being asked about after ethnicity. (The FDA guidance suggests that
                        individuals be permitted to designate a multiracial identity. Check all that
                        apply at the time of collection).</TranslatedText>
                </mdr:CRFCompletionInstructions>
                <mdr:ImplementationNotes>
                    <TranslatedText xml:lang="en">Use CRACE when more detailed race categorizations
                        are desired (e.g., more than the 5 minimum designations for race used by the
                        FDA). The use of race and vocabulary tables located within the HL7 Reference
                        Information Model Structural Vocabulary Tables is recommended, as they are
                        designed to collapse up to the SDTM variable RACE with CT (e.g., American
                        Indian or Alaska Native Asian; Black or African American; Native Hawaiian or
                        Other Pacific Islander; White ).* If sponsors choose to map the extended
                        Race codelist values to RACE CT (e.g., Japanese to Asian), then this mapped
                        variable would be reported using the SDTMIG variable RACE. Sponsors should
                        refer to the FDA Guidance. *For studies where data are collected outside the
                        US, the recommended categories are the same except for Black instead of
                        Black or African American. If multiple races are collected, an alternate
                        sponsor-defined variable structure would be required. Sponsors may record
                        multiple self-reported races for a subject by appending a suffix to denote
                        multiple collected races (e.g. CRACE1, CRACE2) and populate CRACE with the
                        value MULTIPLE.</TranslatedText>
                </mdr:ImplementationNotes>
                <mdr:MappingInstructions>
                    <TranslatedText xml:lang="en">This does not map directly to an SDTMIG variable.
                        This information could be submitted in a SUPPDM dataset as the value of
                        SUPPDM.QVAL when SUPPDM.QNAM = "CRACE" and SUPPDM.QLABEL="Collected Race".
                        See SDTMIG v3.2 Section 5 for the DM Domain.</TranslatedText>
                </mdr:MappingInstructions>
                <mdr:Definition>
                    <TranslatedText xml:lang="en">An arbitrary classification based on physical
                        characteristics; a group of persons related by common descent or heredity
                        (US Centers for Disease Control).</TranslatedText>
                </mdr:Definition>
            </ItemDef>
            <ItemDef DataType="text" Name="RACEOTH" OID="IT.DM.RACEOTH" mdr:Core="O"
                mdr:SubmissionDataType="Char">
                <Description>
                    <TranslatedText xml:lang="en">Race Other</TranslatedText>
                </Description>
                <Question>
                    <TranslatedText xml:lang="en">What was the other race?</TranslatedText>
                </Question>
                <Alias Context="sdtmigDatasetMappingTarget_0" Name="SUPPQUAL.QVAL"/>
                <mdr:Prompt>
                    <TranslatedText xml:lang="en">Specify Other Race</TranslatedText>
                </mdr:Prompt>
                <mdr:CRFCompletionInstructions>
                    <TranslatedText xml:lang="en">If none of the pre-printed values for RACE are
                        applicable or if another, unprinted selection should be added to those
                        pre-printed values, record the value in this free text
                        field.</TranslatedText>
                </mdr:CRFCompletionInstructions>
                <mdr:ImplementationNotes>
                    <TranslatedText xml:lang="en">When creating the DM form, it is suggested that
                        the 5 standard race categories be included. Sponsors may choose to include
                        another value of Specify, Other with a free-text field for extending the
                        list of values. The RACEOTH variable contains the free text added by the
                        site. The value(s) added in the optional variable might or might not
                        "collapse up" into one of the 5 categories specified by the FDA Guidance.
                        See SDTMIG v3.2, Section 5 -DM Domain for examples of reporting this
                        implementation.</TranslatedText>
                </mdr:ImplementationNotes>
                <mdr:MappingInstructions>
                    <TranslatedText xml:lang="en">This does not map directly to an SDTMIG variable.
                        This information could be submitted in a SUPPDM dataset as the value of
                        SUPPDM.QVAL where SUPPDM.QNAM = "RACEOTH" and SUPP.QLABEL="RACE OTHER". See
                        SDTMIG v3.2 Section 5, DM Domain. Refer to the current SDTM and SDTMIG for
                        instructions on placement of non-standard variables in SDTM
                        domains.</TranslatedText>
                </mdr:MappingInstructions>
                <mdr:Definition>
                    <TranslatedText xml:lang="en">A free-text field to be used when none of the
                        preprinted values for RACE are applicable or if another, unprinted selection
                        should be added to those preprinted values.</TranslatedText>
                </mdr:Definition>
            </ItemDef>
            <ItemDef DataType="text" Name="STUDYID" OID="IT.CM.STUDYID" mdr:Core="HR"
                mdr:SubmissionDataType="Char">
                <Description>
                    <TranslatedText xml:lang="en">Study Identifier</TranslatedText>
                </Description>
                <Question>
                    <TranslatedText xml:lang="en">What is the study identifier?</TranslatedText>
                </Question>
                <Alias Context="sdtmigDatasetMappingTarget_0" Name="CM.STUDYID"/>
                <mdr:Prompt>
                    <TranslatedText xml:lang="en">[Protocol/Study]</TranslatedText>
                </mdr:Prompt>
                <mdr:ImplementationNotes>
                    <TranslatedText xml:lang="en">While this field is not typically captured on a
                        CRF, it should be displayed clearly on the CRF and/or the EDC system. This
                        field can be included into the database or populated during SDTM-based
                        dataset creation before submission.</TranslatedText>
                </mdr:ImplementationNotes>
                <mdr:MappingInstructions>
                    <TranslatedText xml:lang="en">Maps directly to the SDTMIG variable listed in the
                        column with the heading "SDTMIG Target".</TranslatedText>
                </mdr:MappingInstructions>
                <mdr:Definition>
                    <TranslatedText xml:lang="en">A unique identifier for a study.</TranslatedText>
                </mdr:Definition>
            </ItemDef>
            <ItemDef DataType="text" Name="SITEID" OID="IT.CM.SITEID" mdr:Core="HR"
                mdr:SubmissionDataType="Char">
                <Description>
                    <TranslatedText xml:lang="en">Study Site Identifier</TranslatedText>
                </Description>
                <Question>
                    <TranslatedText xml:lang="en">What is the site identifier?</TranslatedText>
                </Question>
                <Alias Context="sdtmigDatasetMappingTarget_0" Name="DM.SITEID"/>
                <mdr:Prompt>
                    <TranslatedText xml:lang="en">Site (Identifier)</TranslatedText>
                </mdr:Prompt>
                <mdr:ImplementationNotes>
                    <TranslatedText xml:lang="en">Paper: This is typically preprinted in the header
                        of each CRF page for single site studies. For studies with multiple sites,
                        this field may be left blank so that the number can be recorded by the site,
                        or it may be preprinted on CRFs that are shipped to each site. EDC: This
                        should be prepopulated.</TranslatedText>
                </mdr:ImplementationNotes>
                <mdr:MappingInstructions>
                    <TranslatedText xml:lang="en">Maps directly to the SDTMIG variable listed in the
                        column with the heading "SDTMIG Target".</TranslatedText>
                </mdr:MappingInstructions>
                <mdr:Definition>
                    <TranslatedText xml:lang="en">A unique identifier for a site within a
                        study.</TranslatedText>
                </mdr:Definition>
            </ItemDef>
            <ItemDef DataType="text" Name="SUBJID" OID="IT.CM.SUBJID" mdr:Core="HR"
                mdr:SubmissionDataType="Char">
                <Description>
                    <TranslatedText xml:lang="en">Subject Identifier for the Study</TranslatedText>
                </Description>
                <Question>
                    <TranslatedText xml:lang="en">What [is/was] the (study) [subject/participant]
                        identifier?</TranslatedText>
                </Question>
                <Alias Context="sdtmigDatasetMappingTarget_0" Name="DM.SUBJID"/>
                <mdr:Prompt>
                    <TranslatedText xml:lang="en">[Subject/Participant]
                        (Identifier)</TranslatedText>
                </mdr:Prompt>
                <mdr:CRFCompletionInstructions>
                    <TranslatedText xml:lang="en">Record the identifier for the
                        subject.</TranslatedText>
                </mdr:CRFCompletionInstructions>
                <mdr:ImplementationNotes>
                    <TranslatedText xml:lang="en">Paper: This is typically recorded in the header of
                        each CRF page. EDC: The subject identifiers may be system generated. This
                        CDASH variable is typically collected in all CDASH domains. However, this
                        CDASH variable is populated only in the SDTMIG DM domain. For more
                        information, refer to the SDTM Implementation Guide.</TranslatedText>
                </mdr:ImplementationNotes>
                <mdr:MappingInstructions>
                    <TranslatedText xml:lang="en">Maps directly to the SDTMIG variable listed in the
                        column with the heading "SDTMIG Target".</TranslatedText>
                </mdr:MappingInstructions>
                <mdr:Definition>
                    <TranslatedText xml:lang="en">A unique subject identifier within a site and a
                        study.</TranslatedText>
                </mdr:Definition>
            </ItemDef>
            <ItemDef DataType="text" Name="CMCAT" OID="IT.CM.CMCAT" mdr:Core="O"
                mdr:SubmissionDataType="Char">
                <Description>
                    <TranslatedText xml:lang="en">Category for Medication</TranslatedText>
                </Description>
                <Question>
                    <TranslatedText xml:lang="en">What is the category for the (concomitant)
                        [medication/treatment/therapy]?</TranslatedText>
                </Question>
                <Alias Context="sdtmigDatasetMappingTarget_0" Name="CM.CMCAT"/>
                <mdr:Prompt>
                    <TranslatedText xml:lang="en">(Concomitant) [Medication/Treatment/Therapy
                        Category]; NULL</TranslatedText>
                </mdr:Prompt>
                <mdr:CRFCompletionInstructions>
                    <TranslatedText xml:lang="en">Record the (concomitant)
                        [medication/treatment/therapy] category, if not pre-printed on the
                        CRF.</TranslatedText>
                </mdr:CRFCompletionInstructions>
                <mdr:ImplementationNotes>
                    <TranslatedText xml:lang="en">Sponsor-defined controlled terminology. This would
                        most commonly be either a heading, or a preprinted category value on the CRF
                        and not a question to which the site would provide an answer. If a question
                        is asked, the response would typically be a sponsor-defined codelist. If the
                        form is laid out as a grid, then words such as "Category" can be included as
                        the column header.</TranslatedText>
                </mdr:ImplementationNotes>
                <mdr:MappingInstructions>
                    <TranslatedText xml:lang="en">Maps directly to the SDTMIG variable listed in the
                        column with the heading "SDTMIG Target".</TranslatedText>
                </mdr:MappingInstructions>
                <mdr:Definition>
                    <TranslatedText xml:lang="en">A grouping of topic-variable values based on
                        user-defined characteristics.</TranslatedText>
                </mdr:Definition>
            </ItemDef>
            <ItemDef DataType="text" Name="CMSCAT" OID="IT.CM.CMSCAT" mdr:Core="O"
                mdr:SubmissionDataType="Char">
                <Description>
                    <TranslatedText xml:lang="en">Subcategory for Medication</TranslatedText>
                </Description>
                <Question>
                    <TranslatedText xml:lang="en">What is the subcategory for the (concomitant)
                        [medication/treatment/therapy]?</TranslatedText>
                </Question>
                <Alias Context="sdtmigDatasetMappingTarget_0" Name="CM.CMSCAT"/>
                <mdr:Prompt>
                    <TranslatedText xml:lang="en">(Concomitant) [Medication/Treatment/Therapy
                        subcategory]; NULL</TranslatedText>
                </mdr:Prompt>
                <mdr:CRFCompletionInstructions>
                    <TranslatedText xml:lang="en">Record (concomitant)
                        [medication/treatment/therapy] subcategory, if not pre-printed on the
                        CRF.</TranslatedText>
                </mdr:CRFCompletionInstructions>
                <mdr:ImplementationNotes>
                    <TranslatedText xml:lang="en">Sponsor-defined controlled terminology. This would
                        most commonly be pre-printed on the CRF or screen and prepopulated in the
                        data management system. This is not typically a question to which the site
                        would provide an answer.</TranslatedText>
                </mdr:ImplementationNotes>
                <mdr:MappingInstructions>
                    <TranslatedText xml:lang="en">Maps directly to the SDTMIG variable listed in the
                        column with the heading "SDTMIG Target".</TranslatedText>
                </mdr:MappingInstructions>
                <mdr:Definition>
                    <TranslatedText xml:lang="en">A sub-division of the CMCAT values based on
                        user-defined characteristics.</TranslatedText>
                </mdr:Definition>
            </ItemDef>
            <ItemDef DataType="text" Name="CMYN" OID="IT.CM.CMYN" mdr:Core="O"
                mdr:SubmissionDataType="Char">
                <Description>
                    <TranslatedText xml:lang="en">Any Concomitant Medications Taken</TranslatedText>
                </Description>
                <Question>
                    <TranslatedText xml:lang="en">Were/Was any (concomitant)
                        [medication(s)/treatment(s)/therapy(ies)] taken?</TranslatedText>
                </Question>
                <CodeListRef CodeListOID="CL.C66742"/>
                <mdr:Prompt>
                    <TranslatedText xml:lang="en">Any (Concomitant)
                        [Medication(s)/Treatment(s)/Therapy(ies)]</TranslatedText>
                </mdr:Prompt>
                <mdr:CRFCompletionInstructions>
                    <TranslatedText xml:lang="en">Indicate if the subject took any (concomitant)
                        [medications/treatments]. If Yes, include the appropriate details where
                        indicated on the CRF.</TranslatedText>
                </mdr:CRFCompletionInstructions>
                <mdr:ImplementationNotes>
                    <TranslatedText xml:lang="en">The intent/purpose of collecting this field is to
                        help with data cleaning and monitoring. It provides verification that all
                        other fields on the CRF were deliberately left blank.</TranslatedText>
                </mdr:ImplementationNotes>
                <mdr:MappingInstructions>
                    <TranslatedText xml:lang="en">Does not map to an SDTMIG variable. The SDTM
                        Annotated CRF is annotated to indicate that this field is NOT
                        SUBMITTED.</TranslatedText>
                </mdr:MappingInstructions>
                <mdr:Definition>
                    <TranslatedText xml:lang="en">An indication whether or not any (concomitant)
                        medications/treatments/therapies were taken/given.</TranslatedText>
                </mdr:Definition>
            </ItemDef>
            <ItemDef DataType="text" Name="CMSPID" OID="IT.CM.CMSPID" mdr:Core="O"
                mdr:SubmissionDataType="Char">
                <Description>
                    <TranslatedText xml:lang="en">CM Sponsor-Defined Identifier</TranslatedText>
                </Description>
                <Question>
                    <TranslatedText xml:lang="en">[Sponsor-defined question]</TranslatedText>
                </Question>
                <Alias Context="sdtmigDatasetMappingTarget_0" Name="CM.CMSPID"/>
                <mdr:Prompt>
                    <TranslatedText xml:lang="en">[Sponsor defined]</TranslatedText>
                </mdr:Prompt>
                <mdr:CRFCompletionInstructions>
                    <TranslatedText xml:lang="en">If collected on the CRF, sponsor may insert
                        instructions to ensure each record has a unique identifier.</TranslatedText>
                </mdr:CRFCompletionInstructions>
                <mdr:ImplementationNotes>
                    <TranslatedText xml:lang="en">Because SPID is a sponsor-defined identifier,
                        conformance to Question Text or Item Prompt is not applicable. Typically
                        used as an identifier in a data query to communicate clearly to the site the
                        specific record in question or to reconcile concomitant medication/treatment
                        records with AEs and/or MH. May be used to record preprinted number (e.g.
                        line number, record number) on the CRF. This field may be populated by the
                        sponsor's data collection system.</TranslatedText>
                </mdr:ImplementationNotes>
                <mdr:MappingInstructions>
                    <TranslatedText xml:lang="en">Maps directly to the SDTMIG variable listed in the
                        column with the heading "SDTMIG Target". May be used to create RELREC to
                        link this record with a record in another domain.</TranslatedText>
                </mdr:MappingInstructions>
                <mdr:Definition>
                    <TranslatedText xml:lang="en">A sponsor-defined identifier. In CDASH, This is
                        typically used for preprinted or auto-generated numbers on the CRF, or any
                        other type of identifier that does not already have a defined CDASH
                        identifier field.</TranslatedText>
                </mdr:Definition>
            </ItemDef>
            <ItemDef DataType="text" Name="CMTRT" OID="IT.CM.CMTRT" mdr:Core="HR"
                mdr:SubmissionDataType="Char">
                <Description>
                    <TranslatedText xml:lang="en">Reported Name of Drug, Med, or
                        Therapy</TranslatedText>
                </Description>
                <Question>
                    <TranslatedText xml:lang="en">What was the (concomitant)
                        [medication/treatment/therapy] (name/term)?</TranslatedText>
                </Question>
                <Alias Context="sdtmigDatasetMappingTarget_0" Name="CM.CMTRT"/>
                <mdr:Prompt>
                    <TranslatedText xml:lang="en">(Concomitant)
                        [Medication/Treatment/Therapy]</TranslatedText>
                </mdr:Prompt>
                <mdr:CRFCompletionInstructions>
                    <TranslatedText xml:lang="en">Record only 1 [medication/treatment/therapy] per
                        line. Provide the full trade or proprietary name of the
                        [medication/treatment/therapy]; otherwise the generic name may be
                        recorded.</TranslatedText>
                </mdr:CRFCompletionInstructions>
                <mdr:ImplementationNotes>
                    <TranslatedText xml:lang="en">In most cases, the verbatim drug names or
                        treatment will be coded to a standard dictionary such as WHODrug after the
                        data have been collected on the CRF. For the collection of verbatim drug
                        name or treatments, the recommendation is to ask sites to provide the full
                        trade or proprietary name since it is more exact than the generic. The full
                        trade name provides the base generic and the appropriate salt for that
                        particular drug. In addition, for coding purposes it helps with ATC
                        selection. For example, Tylenol with codeine #1 has a different ATC code
                        than Tylenol with codeine #3. This field can be used for either prior or
                        concomitant medication/treatments.</TranslatedText>
                </mdr:ImplementationNotes>
                <mdr:MappingInstructions>
                    <TranslatedText xml:lang="en">Maps directly to the SDTMIG variable listed in the
                        column with the heading "SDTMIG Target".</TranslatedText>
                </mdr:MappingInstructions>
                <mdr:Definition>
                    <TranslatedText xml:lang="en">Verbatim medication name or treatments (include
                        only treatments with data collection characteristics similar to
                        medications).</TranslatedText>
                </mdr:Definition>
            </ItemDef>
            <ItemDef DataType="text" Name="CMPRESP" OID="IT.CM.CMPRESP" mdr:Core="O"
                mdr:SubmissionDataType="Char">
                <Description>
                    <TranslatedText xml:lang="en">CM Pre-Specified</TranslatedText>
                </Description>
                <CodeListRef CodeListOID="CL.C66742"/>
                <Alias Context="sdtmigDatasetMappingTarget_0" Name="CM.CMPRESP"/>
                <mdr:ImplementationNotes>
                    <TranslatedText xml:lang="en">For prespecified interventions, a hidden field on
                        a CRF defaulted to "Y", or added during the SDTM dataset creation. If a
                        study collects both prespecified interventions as well as free-text
                        interventions, the value of CMPRESP should be "Y" for all prespecified
                        interventions and null for interventions reported as free
                        text.</TranslatedText>
                </mdr:ImplementationNotes>
                <mdr:MappingInstructions>
                    <TranslatedText xml:lang="en">Maps directly to the SDTMIG variable listed in the
                        column with the heading "SDTMIG Target".</TranslatedText>
                </mdr:MappingInstructions>
                <mdr:Definition>
                    <TranslatedText xml:lang="en">An indication that a specific intervention or a
                        group of interventions is prespecified on a CRF.</TranslatedText>
                </mdr:Definition>
            </ItemDef>
            <ItemDef DataType="text" Name="CMOCCUR" OID="IT.CM.CMOCCUR" mdr:Core="O"
                mdr:SubmissionDataType="Char">
                <Description>
                    <TranslatedText xml:lang="en">CM Occurrence</TranslatedText>
                </Description>
                <Question>
                    <TranslatedText xml:lang="en">Did the subject take [prespecified (concomitant)
                        medication/treatment/therapy/dose]?; Has the subject taken [prespecified
                        (concomitant) medication/treatment/therapy/dose]?</TranslatedText>
                </Question>
                <CodeListRef CodeListOID="CL.C66742"/>
                <Alias Context="sdtmigDatasetMappingTarget_0" Name="CM.CMOCCUR"/>
                <mdr:Prompt>
                    <TranslatedText xml:lang="en">[Specific (Concomitant)
                        [Medication/Treatment/Therapy]</TranslatedText>
                </mdr:Prompt>
                <mdr:CRFCompletionInstructions>
                    <TranslatedText xml:lang="en">Indicate if [specific medication/treatment] was
                        taken by checking Yes or No.</TranslatedText>
                </mdr:CRFCompletionInstructions>
                <mdr:ImplementationNotes>
                    <TranslatedText xml:lang="en">CMOCCUR is used to report the occurrence of a
                        prespecific medication/treatment. CMOCCUR is not used for spontaneously free
                        text reported concomitant medication/treatments. The site should be able to
                        indicate that the response was not asked or answered.</TranslatedText>
                </mdr:ImplementationNotes>
                <mdr:MappingInstructions>
                    <TranslatedText xml:lang="en">Maps directly to the SDTMIG variable listed in the
                        column with the heading "SDTMIG Target". If the response was not asked or
                        answered, populate the SDTMIG variable CMSTAT with "NOT
                        DONE".</TranslatedText>
                </mdr:MappingInstructions>
                <mdr:Definition>
                    <TranslatedText xml:lang="en">An indication whether the prespecified
                        medication/treatment/therapy (CMTRT) or the group of
                        medications/treatments/therapies was administered when information about the
                        occurrence of a specific intervention is solicited.</TranslatedText>
                </mdr:Definition>
            </ItemDef>
            <ItemDef DataType="text" Name="CMINGRD" OID="IT.CM.CMINGRD" mdr:Core="O"
                mdr:SubmissionDataType="Char">
                <Description>
                    <TranslatedText xml:lang="en">Concomitant Meds Active
                        Ingredients</TranslatedText>
                </Description>
                <Question>
                    <TranslatedText xml:lang="en">What were the active ingredients?</TranslatedText>
                </Question>
                <mdr:Prompt>
                    <TranslatedText xml:lang="en">Active Ingredients</TranslatedText>
                </mdr:Prompt>
                <mdr:CRFCompletionInstructions>
                    <TranslatedText xml:lang="en">Prior to a subject's clinical visit, remind all
                        subjects to bring all medications bottles, packs etc. they are taking with
                        them to their clinical visit. Record all active ingredient(s) off the
                        medication label and separate each ingredient with a comma for the name of
                        drug medication or treatment taken. For example, the medication Dolmen, if
                        manufactured in Spain, the active ingredients should be collected as noted
                        below: Active Ingredient: Acetylsalicylic Acid, Ascorbic acid, codeine
                        phosphate.</TranslatedText>
                </mdr:CRFCompletionInstructions>
                <mdr:ImplementationNotes>
                    <TranslatedText xml:lang="en">This may be collected in addition to the
                        Medication/Treatment Name. Collecting this provides more detailed
                        information when coding to a medication dictionary like WHODrug Dictionary
                        Enhanced Format C, which now codes to the ingredient level for many
                        trade-named medications. For example, depending on the country where it is
                        manufactured, the active ingredients in the medication Dolmen may be
                        different: In Spain, Acetylsalicylic Acid, Ascorbic acid, codeine phosphate;
                        in Italy and Czech Republic, contains Tenoxicam; in Estonia and Latvia,
                        contains Dexketoprofen trometamol.</TranslatedText>
                </mdr:ImplementationNotes>
                <mdr:MappingInstructions>
                    <TranslatedText xml:lang="en">Does not map to an SDTMIG variable. The SDTM
                        Annotated CRF is annotated to indicate that this field is NOT
                        SUBMITTED.</TranslatedText>
                </mdr:MappingInstructions>
                <mdr:Definition>
                    <TranslatedText xml:lang="en">Medication Ingredients.</TranslatedText>
                </mdr:Definition>
            </ItemDef>
            <ItemDef DataType="text" Name="CMINDC" OID="IT.CM.CMINDC" mdr:Core="R/C"
                mdr:SubmissionDataType="Char">
                <Description>
                    <TranslatedText xml:lang="en">CM Indication</TranslatedText>
                </Description>
                <Question>
                    <TranslatedText xml:lang="en">For what indication was the (concomitant)
                        [medication/treatment/therapy] taken?</TranslatedText>
                </Question>
                <Alias Context="sdtmigDatasetMappingTarget_0" Name="CM.CMINDC"/>
                <mdr:Prompt>
                    <TranslatedText xml:lang="en">Indication</TranslatedText>
                </mdr:Prompt>
                <mdr:CRFCompletionInstructions>
                    <TranslatedText xml:lang="en">Record the reason the medication was taken based
                        on clinical investigator's evaluation. If taken to treat a condition, and a
                        diagnosis was made, the indication should be the diagnosis. If taken to
                        treat a condition, and no diagnosis was made, the indication should be the
                        signs and symptoms. If taken as prophylaxis, report as "Prophylaxis for "
                        and include a description of the condition(s).</TranslatedText>
                </mdr:CRFCompletionInstructions>
                <mdr:ImplementationNotes>
                    <TranslatedText xml:lang="en">This is not the pharmacological/therapeutic
                        classification of an agent (e.g., antibiotic, analgesic), but the reason for
                        its administration to the subject. This additional information is collected
                        on the CRF when sponsors want to capture the reason(s) why a subject took a
                        medication/treatment. This information could be used as deemed appropriate
                        for coding, analysis (e.g., in the classification of medications), for
                        reconciling the medications/treatments taken by a subject with provided
                        medical history, and/or AEs/SAEs as part of the data clean-up and monitoring
                        process.</TranslatedText>
                </mdr:ImplementationNotes>
                <mdr:MappingInstructions>
                    <TranslatedText xml:lang="en">Maps directly to the SDTMIG variable listed in the
                        column with the heading "SDTMIG Target".</TranslatedText>
                </mdr:MappingInstructions>
                <mdr:Definition>
                    <TranslatedText xml:lang="en">The condition, disease, symptom, or disorder that
                        the concomitant (non-study) medication/treatment/therapy was used to address
                        or investigate (e.g., why the medication/treatment/therapy was taken or
                        administered).</TranslatedText>
                </mdr:Definition>
            </ItemDef>
            <ItemDef DataType="text" Name="CMAENO" OID="IT.CM.CMAENO" mdr:Core="O"
                mdr:SubmissionDataType="Char">
                <Description>
                    <TranslatedText xml:lang="en">Related Adverse Event ID</TranslatedText>
                </Description>
                <Question>
                    <TranslatedText xml:lang="en">What was the identifier for the adverse event(s)
                        for which the (concomitant) [medication/treatment/therapy] was
                        taken?</TranslatedText>
                </Question>
                <mdr:Prompt>
                    <TranslatedText xml:lang="en">Adverse Event Identifier</TranslatedText>
                </mdr:Prompt>
                <mdr:CRFCompletionInstructions>
                    <TranslatedText xml:lang="en">Record the identifier of the Adverse Event for
                        which this (concomitant) [medication/treatment/therapy] was
                        taken.</TranslatedText>
                </mdr:CRFCompletionInstructions>
                <mdr:ImplementationNotes>
                    <TranslatedText xml:lang="en">Intent is to establish a link between the
                        medication/treatment and the AE that was reported. CMAENO can be used to
                        identify a relationship between records in CM dataset and records in the AE
                        dataset. See SDTMIG v3.2 Section 8.2 for information on
                        RELREC.</TranslatedText>
                </mdr:ImplementationNotes>
                <mdr:MappingInstructions>
                    <TranslatedText xml:lang="en">This does not map directly to an SDTMIG variable.
                        For the SDTM submission datasets, may be used to create RELREC to link this
                        record with a record in the Adverse Events domain.</TranslatedText>
                </mdr:MappingInstructions>
                <mdr:Definition>
                    <TranslatedText xml:lang="en">Identifier for the adverse event that is the
                        indication for this medication/treatment/therapy.</TranslatedText>
                </mdr:Definition>
            </ItemDef>
            <ItemDef DataType="text" Name="CMMHNO" OID="IT.CM.CMMHNO" mdr:Core="O"
                mdr:SubmissionDataType="Char">
                <Description>
                    <TranslatedText xml:lang="en">Related Medical History Event ID</TranslatedText>
                </Description>
                <Question>
                    <TranslatedText xml:lang="en">What was the identifier for the medical history
                        event(s) for which the (concomitant) [medication/treatment/therapy] was
                        taken?</TranslatedText>
                </Question>
                <mdr:Prompt>
                    <TranslatedText xml:lang="en">Medical History Event Identifier</TranslatedText>
                </mdr:Prompt>
                <mdr:CRFCompletionInstructions>
                    <TranslatedText xml:lang="en">Record the identifier of the medical history event
                        for which this (concomitant) [medication/treatment/therapy] was
                        taken.</TranslatedText>
                </mdr:CRFCompletionInstructions>
                <mdr:ImplementationNotes>
                    <TranslatedText xml:lang="en">Intent is to establish a link between the medical
                        history condition and the medication/treatment taken for the medical history
                        condition. CMMHNO can be used to identify a relationship between records in
                        the CM dataset and records in the MH dataset. See SDTMIG v3.2 Section 8.2
                        for information on RELREC.</TranslatedText>
                </mdr:ImplementationNotes>
                <mdr:MappingInstructions>
                    <TranslatedText xml:lang="en">This does not map directly to an SDTMIG variable.
                        For the SDTM submission datasets, may be used to create RELREC to link this
                        record with a record in the Medical History domain.</TranslatedText>
                </mdr:MappingInstructions>
                <mdr:Definition>
                    <TranslatedText xml:lang="en">Identifier for the medical history condition that
                        is the indication for this medication/treatment/therapy.</TranslatedText>
                </mdr:Definition>
            </ItemDef>
            <ItemDef DataType="double" Name="CMDOSE" OID="IT.CM.CMDOSE" mdr:Core="O"
                mdr:SubmissionDataType="Num">
                <Description>
                    <TranslatedText xml:lang="en">CM Dose per Administration</TranslatedText>
                </Description>
                <Question>
                    <TranslatedText xml:lang="en">What was the individual dose (of the concomitant
                        [medication/treatment/therapy] per administration)?</TranslatedText>
                </Question>
                <Alias Context="sdtmigDatasetMappingTarget_0" Name="CM.CMDOSE"/>
                <mdr:Prompt>
                    <TranslatedText xml:lang="en">[Dose/Amount] (per
                        administration)</TranslatedText>
                </mdr:Prompt>
                <mdr:CRFCompletionInstructions>
                    <TranslatedText xml:lang="en">Record the dose of (concomitant)
                        [medication/treatment] taken per administration (e.g.,
                        200).</TranslatedText>
                </mdr:CRFCompletionInstructions>
                <mdr:ImplementationNotes>
                    <TranslatedText xml:lang="en">Used when the dose/amount
                        taken/administered/consumed has only numeric entries. If non-numeric entries
                        are possible, use the CDASH field CMDSTXT.</TranslatedText>
                </mdr:ImplementationNotes>
                <mdr:MappingInstructions>
                    <TranslatedText xml:lang="en">Maps directly to the SDTMIG variable listed in the
                        column with the heading "SDTMIG Target".</TranslatedText>
                </mdr:MappingInstructions>
                <mdr:Definition>
                    <TranslatedText xml:lang="en">The dose of medication/treatment (e.g., --TRT )
                        given at one time represented as a numeric value.</TranslatedText>
                </mdr:Definition>
            </ItemDef>
            <ItemDef DataType="text" Name="CMDSTXT" OID="IT.CM.CMDSTXT" mdr:Core="O"
                mdr:SubmissionDataType="Char">
                <Description>
                    <TranslatedText xml:lang="en">Concomitant Meds Dose Description</TranslatedText>
                </Description>
                <Question>
                    <TranslatedText xml:lang="en">What was the individual dose of the (concomitant)
                        [medication/treatment/therapy]?</TranslatedText>
                </Question>
                <Alias Context="sdtmigDatasetMappingTarget_0" Name="CM.CMDOSE"/>
                <Alias Context="sdtmigDatasetMappingTarget_1" Name="CM.CMDOSTXT"/>
                <mdr:Prompt>
                    <TranslatedText xml:lang="en">Dose</TranslatedText>
                </mdr:Prompt>
                <mdr:CRFCompletionInstructions>
                    <TranslatedText xml:lang="en">Record the dose of (concomitant)
                        [medication/treatment] taken per administration (e.g.,
                        200).</TranslatedText>
                </mdr:CRFCompletionInstructions>
                <mdr:ImplementationNotes>
                    <TranslatedText xml:lang="en">Defining this data collection field as a dose text
                        field allows for flexibility in capturing dose entries as numbers, text or
                        ranges. The data collected in this dose text-format field should be
                        separated or mapped to either SDTMIG CMDOSE if numeric or CMDOSTXT if
                        text.</TranslatedText>
                </mdr:ImplementationNotes>
                <mdr:MappingInstructions>
                    <TranslatedText xml:lang="en">This does not map directly to an SDTMIG variable.
                        Numeric values map to CMDOSE in SDTM. Non-numeric values (e.g., 200-400) map
                        to CMDOSTXT in SDTM.</TranslatedText>
                </mdr:MappingInstructions>
                <mdr:Definition>
                    <TranslatedText xml:lang="en">The dose of medication/treatment taken per
                        administration.</TranslatedText>
                </mdr:Definition>
            </ItemDef>
            <ItemDef DataType="double" Name="CMDOSTOT" OID="IT.CM.CMDOSTOT" mdr:Core="O"
                mdr:SubmissionDataType="Num">
                <Description>
                    <TranslatedText xml:lang="en">CM Total Daily Dose</TranslatedText>
                </Description>
                <Question>
                    <TranslatedText xml:lang="en">What was the total daily dose of the (concomitant)
                        [medication/treatment/therapy]?</TranslatedText>
                </Question>
                <Alias Context="sdtmigDatasetMappingTarget_0" Name="CM.CMDOSTOT"/>
                <mdr:Prompt>
                    <TranslatedText xml:lang="en">Total Daily Dose</TranslatedText>
                </mdr:Prompt>
                <mdr:CRFCompletionInstructions>
                    <TranslatedText xml:lang="en">Record the total dose of (concomitant)
                        [medication/treatment/therapy] taken daily.</TranslatedText>
                </mdr:CRFCompletionInstructions>
                <mdr:ImplementationNotes>
                    <TranslatedText xml:lang="en">For use when only total daily dose is collected in
                        the CRF. For general medications/treatments, it is not recommended to use
                        Total Daily Dose. Instead, this can be calculated from other fields such as
                        Units, Dose, and Frequency.</TranslatedText>
                </mdr:ImplementationNotes>
                <mdr:MappingInstructions>
                    <TranslatedText xml:lang="en">Maps directly to the SDTMIG variable listed in the
                        column with the heading "SDTMIG Target".</TranslatedText>
                </mdr:MappingInstructions>
                <mdr:Definition>
                    <TranslatedText xml:lang="en">The total amount of CMTRT taken over a day using
                        the units in CMDOSU.</TranslatedText>
                </mdr:Definition>
            </ItemDef>
            <ItemDef DataType="text" Name="CMDOSU" OID="IT.CM.CMDOSU" mdr:Core="R/C"
                mdr:SubmissionDataType="Char">
                <Description>
                    <TranslatedText xml:lang="en">CM Dose Units</TranslatedText>
                </Description>
                <Question>
                    <TranslatedText xml:lang="en">What is the unit (for the dose of concomitant
                        [medication/treatment/therapy])?</TranslatedText>
                </Question>
                <CodeListRef CodeListOID="CL.C71620"/>
                <Alias Context="sdtmigDatasetMappingTarget_0" Name="CM.CMDOSU"/>
                <mdr:AltCodeListRef CodeListOID="CL.C78417"/>
                <mdr:Prompt>
                    <TranslatedText xml:lang="en">(Dose) Unit</TranslatedText>
                </mdr:Prompt>
                <mdr:CRFCompletionInstructions>
                    <TranslatedText xml:lang="en">Record the dose unit of the dose of concomitant
                        [medication/treatment/therapy] taken (e.g., mg.).</TranslatedText>
                </mdr:CRFCompletionInstructions>
                <mdr:ImplementationNotes>
                    <TranslatedText xml:lang="en">When sponsors collect data for amount of dose
                        taken (i.e., Dose, Total Daily Dose), Unit must be collected as well (if
                        applicable).</TranslatedText>
                </mdr:ImplementationNotes>
                <mdr:MappingInstructions>
                    <TranslatedText xml:lang="en">Maps directly to the SDTMIG variable listed in the
                        column with the heading "SDTMIG Target".</TranslatedText>
                </mdr:MappingInstructions>
                <mdr:Definition>
                    <TranslatedText xml:lang="en">The unit associated with the concomitant
                        medication/treatment/therapy taken (e.g., mg in "2 mg 3 times per
                        day").</TranslatedText>
                </mdr:Definition>
            </ItemDef>
            <ItemDef DataType="text" Name="CMDOSFRM" OID="IT.CM.CMDOSFRM" mdr:Core="O"
                mdr:SubmissionDataType="Char">
                <Description>
                    <TranslatedText xml:lang="en">CM Dose Form</TranslatedText>
                </Description>
                <Question>
                    <TranslatedText xml:lang="en">What was the dose form of the (concomitant)
                        [medication/treatment/therapy]?</TranslatedText>
                </Question>
                <CodeListRef CodeListOID="CL.C66726"/>
                <Alias Context="sdtmigDatasetMappingTarget_0" Name="CM.CMDOSFRM"/>
                <mdr:AltCodeListRef CodeListOID="CL.C78418"/>
                <mdr:Prompt>
                    <TranslatedText xml:lang="en">Dose Form</TranslatedText>
                </mdr:Prompt>
                <mdr:CRFCompletionInstructions>
                    <TranslatedText xml:lang="en">Record the pharmaceutical dosage form (e.g.,
                        TABLET CAPSULE, SYRUP) of delivery for the concomitant
                        [medication/treatment/therapy] taken.</TranslatedText>
                </mdr:CRFCompletionInstructions>
                <mdr:ImplementationNotes>
                    <TranslatedText xml:lang="en">Some drugs have multiple forms and this field may
                        be needed to code the drug to an ATC level. However, in general, this level
                        of detail should not be necessary except for medications/treatments of
                        interest.</TranslatedText>
                </mdr:ImplementationNotes>
                <mdr:MappingInstructions>
                    <TranslatedText xml:lang="en">Maps directly to the SDTMIG variable listed in the
                        column with the heading "SDTMIG Target".</TranslatedText>
                </mdr:MappingInstructions>
                <mdr:Definition>
                    <TranslatedText xml:lang="en">The pharmaceutical dosage form in which the CMTRT
                        is physically presented.</TranslatedText>
                </mdr:Definition>
            </ItemDef>
            <ItemDef DataType="text" Name="CMDOSFRQ" OID="IT.CM.CMDOSFRQ" mdr:Core="O"
                mdr:SubmissionDataType="Char">
                <Description>
                    <TranslatedText xml:lang="en">CM Dosing Frequency per Interval</TranslatedText>
                </Description>
                <Question>
                    <TranslatedText xml:lang="en">What was the frequency of the (concomitant)
                        [medication/treatment/therapy]?</TranslatedText>
                </Question>
                <CodeListRef CodeListOID="CL.C71113"/>
                <Alias Context="sdtmigDatasetMappingTarget_0" Name="CM.CMDOSFRQ"/>
                <mdr:AltCodeListRef CodeListOID="CL.C78419"/>
                <mdr:Prompt>
                    <TranslatedText xml:lang="en">Frequency</TranslatedText>
                </mdr:Prompt>
                <mdr:CRFCompletionInstructions>
                    <TranslatedText xml:lang="en">Record how often the (concomitant)
                        [medication/treatment/therapy] was taken (e.g., BID, PRN).</TranslatedText>
                </mdr:CRFCompletionInstructions>
                <mdr:ImplementationNotes>
                    <TranslatedText xml:lang="en">The frequency of the concomitant
                        medication/treatment. When collected, the recommendation is to collect
                        dosing information in separate fields (e.g., CMDOSE, CMDOSEU, CMDOSFRQ) for
                        specific and consistent data collection and to enable programmatically
                        utilizing these data.</TranslatedText>
                </mdr:ImplementationNotes>
                <mdr:MappingInstructions>
                    <TranslatedText xml:lang="en">Maps directly to the SDTMIG variable listed in the
                        column with the heading "SDTMIG Target".</TranslatedText>
                </mdr:MappingInstructions>
                <mdr:Definition>
                    <TranslatedText xml:lang="en">The number of doses given/administered/taken
                        during a specific interval.</TranslatedText>
                </mdr:Definition>
            </ItemDef>
            <ItemDef DataType="text" Name="CMROUTE" OID="IT.CM.CMROUTE" mdr:Core="R/C"
                mdr:SubmissionDataType="Char">
                <Description>
