<?xml version='1.0' encoding='utf8'?>
<ODM AsOfDateTime="2013-11-26T00:00:00+00:00" CreationDateTime="2021-06-17T15:31:44.658415+00:00"
    FileOID="ODM.SDTMIGv3.2.2013-11-26" FileType="Snapshot" Granularity="Metadata"
    ODMVersion="1.3.2" Originator="CDISC LIBRARY" SourceSystem="cdisc_library_api"
    SourceSystemVersion="1.0" def:Context="Other" mdr:LibraryXMLVersion="1.0.0"
    xmlns="http://www.cdisc.org/ns/odm/v1.3" xmlns:def="http://www.cdisc.org/ns/def/v2.1"
    xmlns:mdr="http://www.cdisc.org/ns/library-xml/v1.0" xmlns:xlink="http://www.w3.org/1999/xlink">
    <Study OID="STUDY.SDTMIG.v3.2">
        <GlobalVariables>
            <StudyName>SDTMIG v3.2</StudyName>
            <StudyDescription>Study Data Tabulation Model Implementation Guide: Human Clinical
                Trials Version 3.2 (Final)</StudyDescription>
            <ProtocolName>CDISC Standard Publication</ProtocolName>
        </GlobalVariables>
        <MetaDataVersion Name="SDTMIG v3.2 Metadata" OID="MDV.SDTMIG.v3.2" def:DefineVersion="2.1.0"
            mdr:DatePublished="2013-11-26">
            <def:Standards>
                <def:Standard Name="SDTMIG v3.2" OID="STD.SDTMIGv3.2" Status="Final" Type="IG"
                    Version="3.2"/>
            </def:Standards>
            <ItemGroupDef Domain="CO" Name="CO" OID="IGD.CO" Purpose="Tabulation" Repeating="No"
                def:Structure="One record per comment per subject">
                <Description>
                    <TranslatedText xml:lang="en">Comments</TranslatedText>
                </Description>
                <ItemRef ItemOID="IT.CO.STUDYID" Mandatory="No" OrderNumber="1" Role="Identifier"/>
                <ItemRef ItemOID="IT.CO.DOMAIN" Mandatory="No" OrderNumber="2" Role="Identifier"/>
                <ItemRef ItemOID="IT.CO.RDOMAIN" Mandatory="No" OrderNumber="3"
                    Role="Record Qualifier"/>
                <ItemRef ItemOID="IT.CO.USUBJID" Mandatory="No" OrderNumber="4" Role="Identifier"/>
                <ItemRef ItemOID="IT.CO.COSEQ" Mandatory="No" OrderNumber="5" Role="Identifier"/>
                <ItemRef ItemOID="IT.CO.IDVAR" Mandatory="No" OrderNumber="6"
                    Role="Record Qualifier"/>
                <ItemRef ItemOID="IT.CO.IDVARVAL" Mandatory="No" OrderNumber="7"
                    Role="Record Qualifier"/>
                <ItemRef ItemOID="IT.CO.COREF" Mandatory="No" OrderNumber="8"
                    Role="Record Qualifier"/>
                <ItemRef ItemOID="IT.CO.COVAL" Mandatory="No" OrderNumber="9" Role="Topic"/>
                <ItemRef ItemOID="IT.CO.COEVAL" Mandatory="No" OrderNumber="10"
                    Role="Record Qualifier"/>
                <ItemRef ItemOID="IT.CO.CODTC" Mandatory="No" OrderNumber="11" Role="Timing"/>
                <def:Class Name="SPECIAL PURPOSE"/>
            </ItemGroupDef>
            <ItemGroupDef Domain="DM" Name="DM" OID="IGD.DM" Purpose="Tabulation" Repeating="No"
                def:Structure="One record per subject">
                <Description>
                    <TranslatedText xml:lang="en">Demographics</TranslatedText>
                </Description>
                <ItemRef ItemOID="IT.DM.STUDYID" Mandatory="No" OrderNumber="1" Role="Identifier"/>
                <ItemRef ItemOID="IT.DM.DOMAIN" Mandatory="No" OrderNumber="2" Role="Identifier"/>
                <ItemRef ItemOID="IT.DM.USUBJID" Mandatory="No" OrderNumber="3" Role="Identifier"/>
                <ItemRef ItemOID="IT.DM.SUBJID" Mandatory="No" OrderNumber="4" Role="Topic"/>
                <ItemRef ItemOID="IT.DM.RFSTDTC" Mandatory="No" OrderNumber="5"
                    Role="Record Qualifier"/>
                <ItemRef ItemOID="IT.DM.RFENDTC" Mandatory="No" OrderNumber="6"
                    Role="Record Qualifier"/>
                <ItemRef ItemOID="IT.DM.RFXSTDTC" Mandatory="No" OrderNumber="7"
                    Role="Record Qualifier"/>
                <ItemRef ItemOID="IT.DM.RFXENDTC" Mandatory="No" OrderNumber="8"
                    Role="Record Qualifier"/>
                <ItemRef ItemOID="IT.DM.RFICDTC" Mandatory="No" OrderNumber="9"
                    Role="Record Qualifier"/>
                <ItemRef ItemOID="IT.DM.RFPENDTC" Mandatory="No" OrderNumber="10"
                    Role="Record Qualifier"/>
                <ItemRef ItemOID="IT.DM.DTHDTC" Mandatory="No" OrderNumber="11"
                    Role="Record Qualifier"/>
                <ItemRef ItemOID="IT.DM.DTHFL" Mandatory="No" OrderNumber="12"
                    Role="Record Qualifier"/>
                <ItemRef ItemOID="IT.DM.SITEID" Mandatory="No" OrderNumber="13"
                    Role="Record Qualifier"/>
                <ItemRef ItemOID="IT.DM.INVID" Mandatory="No" OrderNumber="14"
                    Role="Record Qualifier"/>
                <ItemRef ItemOID="IT.DM.INVNAM" Mandatory="No" OrderNumber="15"
                    Role="Synonym Qualifier"/>
                <ItemRef ItemOID="IT.DM.BRTHDTC" Mandatory="No" OrderNumber="16"
                    Role="Record Qualifier"/>
                <ItemRef ItemOID="IT.DM.AGE" Mandatory="No" OrderNumber="17" Role="Record Qualifier"/>
                <ItemRef ItemOID="IT.DM.AGEU" Mandatory="No" OrderNumber="18"
                    Role="Variable Qualifier"/>
                <ItemRef ItemOID="IT.DM.SEX" Mandatory="No" OrderNumber="19" Role="Record Qualifier"/>
                <ItemRef ItemOID="IT.DM.RACE" Mandatory="No" OrderNumber="20"
                    Role="Record Qualifier"/>
                <ItemRef ItemOID="IT.DM.ETHNIC" Mandatory="No" OrderNumber="21"
                    Role="Record Qualifier"/>
                <ItemRef ItemOID="IT.DM.ARMCD" Mandatory="No" OrderNumber="22"
                    Role="Record Qualifier"/>
                <ItemRef ItemOID="IT.DM.ARM" Mandatory="No" OrderNumber="23"
                    Role="Synonym Qualifier"/>
                <ItemRef ItemOID="IT.DM.ACTARMCD" Mandatory="No" OrderNumber="24"
                    Role="Record Qualifier"/>
                <ItemRef ItemOID="IT.DM.ACTARM" Mandatory="No" OrderNumber="25"
                    Role="Synonym Qualifier"/>
                <ItemRef ItemOID="IT.DM.COUNTRY" Mandatory="No" OrderNumber="26"
                    Role="Record Qualifier"/>
                <ItemRef ItemOID="IT.DM.DMDTC" Mandatory="No" OrderNumber="27" Role="Timing"/>
                <ItemRef ItemOID="IT.DM.DMDY" Mandatory="No" OrderNumber="28" Role="Timing"/>
                <def:Class Name="SPECIAL PURPOSE"/>
            </ItemGroupDef>
            <ItemGroupDef Domain="SE" Name="SE" OID="IGD.SE" Purpose="Tabulation" Repeating="No"
                def:Structure="One record per actual Element per subject">
                <Description>
                    <TranslatedText xml:lang="en">Subject Elements</TranslatedText>
                </Description>
                <ItemRef ItemOID="IT.SE.STUDYID" Mandatory="No" OrderNumber="1" Role="Identifier"/>
                <ItemRef ItemOID="IT.SE.DOMAIN" Mandatory="No" OrderNumber="2" Role="Identifier"/>
                <ItemRef ItemOID="IT.SE.USUBJID" Mandatory="No" OrderNumber="3" Role="Identifier"/>
                <ItemRef ItemOID="IT.SE.SESEQ" Mandatory="No" OrderNumber="4" Role="Identifier"/>
                <ItemRef ItemOID="IT.SE.ETCD" Mandatory="No" OrderNumber="5" Role="Topic"/>
                <ItemRef ItemOID="IT.SE.ELEMENT" Mandatory="No" OrderNumber="6"
                    Role="Synonym Qualifier"/>
                <ItemRef ItemOID="IT.SE.SESTDTC" Mandatory="No" OrderNumber="7" Role="Timing"/>
                <ItemRef ItemOID="IT.SE.SEENDTC" Mandatory="No" OrderNumber="8" Role="Timing"/>
                <ItemRef ItemOID="IT.SE.TAETORD" Mandatory="No" OrderNumber="9" Role="Timing"/>
                <ItemRef ItemOID="IT.SE.EPOCH" Mandatory="No" OrderNumber="10" Role="Timing"/>
                <ItemRef ItemOID="IT.SE.SEUPDES" Mandatory="No" OrderNumber="11"
                    Role="Synonym Qualifier"/>
                <def:Class Name="SPECIAL PURPOSE"/>
            </ItemGroupDef>
            <ItemGroupDef Domain="SV" Name="SV" OID="IGD.SV" Purpose="Tabulation" Repeating="No"
                def:Structure="One record per subject per actual visit">
                <Description>
                    <TranslatedText xml:lang="en">Subject Visits</TranslatedText>
                </Description>
                <ItemRef ItemOID="IT.SV.STUDYID" Mandatory="No" OrderNumber="1" Role="Identifier"/>
                <ItemRef ItemOID="IT.SV.DOMAIN" Mandatory="No" OrderNumber="2" Role="Identifier"/>
                <ItemRef ItemOID="IT.SV.USUBJID" Mandatory="No" OrderNumber="3" Role="Identifier"/>
                <ItemRef ItemOID="IT.SV.VISITNUM" Mandatory="No" OrderNumber="4" Role="Topic"/>
                <ItemRef ItemOID="IT.SV.VISIT" Mandatory="No" OrderNumber="5"
                    Role="Synonym Qualifier"/>
                <ItemRef ItemOID="IT.SV.VISITDY" Mandatory="No" OrderNumber="6" Role="Timing"/>
                <ItemRef ItemOID="IT.SV.SVSTDTC" Mandatory="No" OrderNumber="7" Role="Timing"/>
                <ItemRef ItemOID="IT.SV.SVENDTC" Mandatory="No" OrderNumber="8" Role="Timing"/>
                <ItemRef ItemOID="IT.SV.SVSTDY" Mandatory="No" OrderNumber="9" Role="Timing"/>
                <ItemRef ItemOID="IT.SV.SVENDY" Mandatory="No" OrderNumber="10" Role="Timing"/>
                <ItemRef ItemOID="IT.SV.SVUPDES" Mandatory="No" OrderNumber="11"
                    Role="Synonym Qualifier"/>
                <def:Class Name="SPECIAL PURPOSE"/>
            </ItemGroupDef>
            <ItemGroupDef Domain="CM" Name="CM" OID="IGD.CM" Purpose="Tabulation" Repeating="No"
                def:Structure="One record per recorded intervention occurrence or constant-dosing interval per subject">
                <Description>
                    <TranslatedText xml:lang="en">Concomitant Medications</TranslatedText>
                </Description>
                <ItemRef ItemOID="IT.CM.STUDYID" Mandatory="No" OrderNumber="1" Role="Identifier"/>
                <ItemRef ItemOID="IT.CM.DOMAIN" Mandatory="No" OrderNumber="2" Role="Identifier"/>
                <ItemRef ItemOID="IT.CM.USUBJID" Mandatory="No" OrderNumber="3" Role="Identifier"/>
                <ItemRef ItemOID="IT.CM.CMSEQ" Mandatory="No" OrderNumber="4" Role="Identifier"/>
                <ItemRef ItemOID="IT.CM.CMGRPID" Mandatory="No" OrderNumber="5" Role="Identifier"/>
                <ItemRef ItemOID="IT.CM.CMSPID" Mandatory="No" OrderNumber="6" Role="Identifier"/>
                <ItemRef ItemOID="IT.CM.CMTRT" Mandatory="No" OrderNumber="7" Role="Topic"/>
                <ItemRef ItemOID="IT.CM.CMMODIFY" Mandatory="No" OrderNumber="8"
                    Role="Synonym Qualifier"/>
                <ItemRef ItemOID="IT.CM.CMDECOD" Mandatory="No" OrderNumber="9"
                    Role="Synonym Qualifier"/>
                <ItemRef ItemOID="IT.CM.CMCAT" Mandatory="No" OrderNumber="10"
                    Role="Grouping Qualifier"/>
                <ItemRef ItemOID="IT.CM.CMSCAT" Mandatory="No" OrderNumber="11"
                    Role="Grouping Qualifier"/>
                <ItemRef ItemOID="IT.CM.CMPRESP" Mandatory="No" OrderNumber="12"
                    Role="Variable Qualifier"/>
                <ItemRef ItemOID="IT.CM.CMOCCUR" Mandatory="No" OrderNumber="13"
                    Role="Record Qualifier"/>
                <ItemRef ItemOID="IT.CM.CMSTAT" Mandatory="No" OrderNumber="14"
                    Role="Record Qualifier"/>
                <ItemRef ItemOID="IT.CM.CMREASND" Mandatory="No" OrderNumber="15"
                    Role="Record Qualifier"/>
                <ItemRef ItemOID="IT.CM.CMINDC" Mandatory="No" OrderNumber="16"
                    Role="Record Qualifier"/>
                <ItemRef ItemOID="IT.CM.CMCLAS" Mandatory="No" OrderNumber="17"
                    Role="Variable Qualifier"/>
                <ItemRef ItemOID="IT.CM.CMCLASCD" Mandatory="No" OrderNumber="18"
                    Role="Variable Qualifier"/>
                <ItemRef ItemOID="IT.CM.CMDOSE" Mandatory="No" OrderNumber="19"
                    Role="Record Qualifier"/>
                <ItemRef ItemOID="IT.CM.CMDOSTXT" Mandatory="No" OrderNumber="20"
                    Role="Record Qualifier"/>
                <ItemRef ItemOID="IT.CM.CMDOSU" Mandatory="No" OrderNumber="21"
                    Role="Variable Qualifier"/>
                <ItemRef ItemOID="IT.CM.CMDOSFRM" Mandatory="No" OrderNumber="22"
                    Role="Variable Qualifier"/>
                <ItemRef ItemOID="IT.CM.CMDOSFRQ" Mandatory="No" OrderNumber="23"
                    Role="Variable Qualifier"/>
                <ItemRef ItemOID="IT.CM.CMDOSTOT" Mandatory="No" OrderNumber="24"
                    Role="Record Qualifier"/>
                <ItemRef ItemOID="IT.CM.CMDOSRGM" Mandatory="No" OrderNumber="25"
                    Role="Variable Qualifier"/>
                <ItemRef ItemOID="IT.CM.CMROUTE" Mandatory="No" OrderNumber="26"
                    Role="Variable Qualifier"/>
                <ItemRef ItemOID="IT.CM.CMSTDTC" Mandatory="No" OrderNumber="27" Role="Timing"/>
                <ItemRef ItemOID="IT.CM.CMENDTC" Mandatory="No" OrderNumber="28" Role="Timing"/>
                <ItemRef ItemOID="IT.CM.CMSTDY" Mandatory="No" OrderNumber="29" Role="Timing"/>
                <ItemRef ItemOID="IT.CM.CMENDY" Mandatory="No" OrderNumber="30" Role="Timing"/>
                <ItemRef ItemOID="IT.CM.CMDUR" Mandatory="No" OrderNumber="31" Role="Timing"/>
                <ItemRef ItemOID="IT.CM.CMSTRF" Mandatory="No" OrderNumber="32" Role="Timing"/>
                <ItemRef ItemOID="IT.CM.CMENRF" Mandatory="No" OrderNumber="33" Role="Timing"/>
                <ItemRef ItemOID="IT.CM.CMSTRTPT" Mandatory="No" OrderNumber="34" Role="Timing"/>
                <ItemRef ItemOID="IT.CM.CMSTTPT" Mandatory="No" OrderNumber="35" Role="Timing"/>
                <ItemRef ItemOID="IT.CM.CMENRTPT" Mandatory="No" OrderNumber="36" Role="Timing"/>
                <ItemRef ItemOID="IT.CM.CMENTPT" Mandatory="No" OrderNumber="37" Role="Timing"/>
                <def:Class Name="INTERVENTIONS"/>
            </ItemGroupDef>
            <ItemGroupDef Domain="EX" Name="EX" OID="IGD.EX" Purpose="Tabulation" Repeating="No"
                def:Structure="One record per protocol-specified study treatment, constant-dosing interval, per subject">
                <Description>
                    <TranslatedText xml:lang="en">Exposure</TranslatedText>
                </Description>
                <ItemRef ItemOID="IT.EX.STUDYID" Mandatory="No" OrderNumber="1" Role="Identifier"/>
                <ItemRef ItemOID="IT.EX.DOMAIN" Mandatory="No" OrderNumber="2" Role="Identifier"/>
                <ItemRef ItemOID="IT.EX.USUBJID" Mandatory="No" OrderNumber="3" Role="Identifier"/>
                <ItemRef ItemOID="IT.EX.EXSEQ" Mandatory="No" OrderNumber="4" Role="Identifier"/>
                <ItemRef ItemOID="IT.EX.EXGRPID" Mandatory="No" OrderNumber="5" Role="Identifier"/>
                <ItemRef ItemOID="IT.EX.EXREFID" Mandatory="No" OrderNumber="6" Role="Identifier"/>
                <ItemRef ItemOID="IT.EX.EXSPID" Mandatory="No" OrderNumber="7" Role="Identifier"/>
                <ItemRef ItemOID="IT.EX.EXLNKID" Mandatory="No" OrderNumber="8" Role="Identifier"/>
                <ItemRef ItemOID="IT.EX.EXLNKGRP" Mandatory="No" OrderNumber="9" Role="Identifier"/>
                <ItemRef ItemOID="IT.EX.EXTRT" Mandatory="No" OrderNumber="10" Role="Topic"/>
                <ItemRef ItemOID="IT.EX.EXCAT" Mandatory="No" OrderNumber="11"
                    Role="Grouping Qualifier"/>
                <ItemRef ItemOID="IT.EX.EXSCAT" Mandatory="No" OrderNumber="12"
                    Role="Grouping Qualifier"/>
                <ItemRef ItemOID="IT.EX.EXDOSE" Mandatory="No" OrderNumber="13"
                    Role="Record Qualifier"/>
                <ItemRef ItemOID="IT.EX.EXDOSTXT" Mandatory="No" OrderNumber="14"
                    Role="Record Qualifier"/>
                <ItemRef ItemOID="IT.EX.EXDOSU" Mandatory="No" OrderNumber="15"
                    Role="Variable Qualifier"/>
                <ItemRef ItemOID="IT.EX.EXDOSFRM" Mandatory="No" OrderNumber="16"
                    Role="Variable Qualifier"/>
                <ItemRef ItemOID="IT.EX.EXDOSFRQ" Mandatory="No" OrderNumber="17"
                    Role="Variable Qualifier"/>
                <ItemRef ItemOID="IT.EX.EXDOSRGM" Mandatory="No" OrderNumber="18"
                    Role="Variable Qualifier"/>
                <ItemRef ItemOID="IT.EX.EXROUTE" Mandatory="No" OrderNumber="19"
                    Role="Variable Qualifier"/>
                <ItemRef ItemOID="IT.EX.EXLOT" Mandatory="No" OrderNumber="20"
                    Role="Record Qualifier"/>
                <ItemRef ItemOID="IT.EX.EXLOC" Mandatory="No" OrderNumber="21"
                    Role="Record Qualifier"/>
                <ItemRef ItemOID="IT.EX.EXLAT" Mandatory="No" OrderNumber="22"
                    Role="Variable Qualifier"/>
                <ItemRef ItemOID="IT.EX.EXDIR" Mandatory="No" OrderNumber="23"
                    Role="Variable Qualifier"/>
                <ItemRef ItemOID="IT.EX.EXFAST" Mandatory="No" OrderNumber="24"
                    Role="Record Qualifier"/>
                <ItemRef ItemOID="IT.EX.EXADJ" Mandatory="No" OrderNumber="25"
                    Role="Record Qualifier"/>
                <ItemRef ItemOID="IT.EX.EPOCH" Mandatory="No" OrderNumber="26" Role="Timing"/>
                <ItemRef ItemOID="IT.EX.EXSTDTC" Mandatory="No" OrderNumber="27" Role="Timing"/>
                <ItemRef ItemOID="IT.EX.EXENDTC" Mandatory="No" OrderNumber="28" Role="Timing"/>
                <ItemRef ItemOID="IT.EX.EXSTDY" Mandatory="No" OrderNumber="29" Role="Timing"/>
                <ItemRef ItemOID="IT.EX.EXENDY" Mandatory="No" OrderNumber="30" Role="Timing"/>
                <ItemRef ItemOID="IT.EX.EXDUR" Mandatory="No" OrderNumber="31" Role="Timing"/>
                <ItemRef ItemOID="IT.EX.EXTPT" Mandatory="No" OrderNumber="32" Role="Timing"/>
                <ItemRef ItemOID="IT.EX.EXTPTNUM" Mandatory="No" OrderNumber="33" Role="Timing"/>
                <ItemRef ItemOID="IT.EX.EXELTM" Mandatory="No" OrderNumber="34" Role="Timing"/>
                <ItemRef ItemOID="IT.EX.EXTPTREF" Mandatory="No" OrderNumber="35" Role="Timing"/>
                <ItemRef ItemOID="IT.EX.EXRFTDTC" Mandatory="No" OrderNumber="36" Role="Timing"/>
                <def:Class Name="INTERVENTIONS"/>
            </ItemGroupDef>
            <ItemGroupDef Domain="EC" Name="EC" OID="IGD.EC" Purpose="Tabulation" Repeating="No"
                def:Structure="One record per protocol-specified study treatment, collected-dosing interval, per subject, per mood">
                <Description>
                    <TranslatedText xml:lang="en">Exposure as Collected</TranslatedText>
                </Description>
                <ItemRef ItemOID="IT.EC.STUDYID" Mandatory="No" OrderNumber="1" Role="Identifier"/>
                <ItemRef ItemOID="IT.EC.DOMAIN" Mandatory="No" OrderNumber="2" Role="Identifier"/>
                <ItemRef ItemOID="IT.EC.USUBJID" Mandatory="No" OrderNumber="3" Role="Identifier"/>
                <ItemRef ItemOID="IT.EC.ECSEQ" Mandatory="No" OrderNumber="4" Role="Identifier"/>
                <ItemRef ItemOID="IT.EC.ECGRPID" Mandatory="No" OrderNumber="5" Role="Identifier"/>
                <ItemRef ItemOID="IT.EC.ECREFID" Mandatory="No" OrderNumber="6" Role="Identifier"/>
                <ItemRef ItemOID="IT.EC.ECSPID" Mandatory="No" OrderNumber="7" Role="Identifier"/>
                <ItemRef ItemOID="IT.EC.ECLNKID" Mandatory="No" OrderNumber="8" Role="Identifier"/>
                <ItemRef ItemOID="IT.EC.ECLNKGRP" Mandatory="No" OrderNumber="9" Role="Identifier"/>
                <ItemRef ItemOID="IT.EC.ECTRT" Mandatory="No" OrderNumber="10" Role="Topic"/>
                <ItemRef ItemOID="IT.EC.ECMOOD" Mandatory="No" OrderNumber="11"
                    Role="Record Qualifier"/>
                <ItemRef ItemOID="IT.EC.ECCAT" Mandatory="No" OrderNumber="12"
                    Role="Grouping Qualifier"/>
                <ItemRef ItemOID="IT.EC.ECSCAT" Mandatory="No" OrderNumber="13"
                    Role="Grouping Qualifier"/>
                <ItemRef ItemOID="IT.EC.ECPRESP" Mandatory="No" OrderNumber="14"
                    Role="Record Qualifier"/>
                <ItemRef ItemOID="IT.EC.ECOCCUR" Mandatory="No" OrderNumber="15"
                    Role="Record Qualifier"/>
                <ItemRef ItemOID="IT.EC.ECDOSE" Mandatory="No" OrderNumber="16"
                    Role="Record Qualifier"/>
                <ItemRef ItemOID="IT.EC.ECDOSTXT" Mandatory="No" OrderNumber="17"
                    Role="Record Qualifier"/>
                <ItemRef ItemOID="IT.EC.ECDOSU" Mandatory="No" OrderNumber="18"
                    Role="Variable Qualifier"/>
                <ItemRef ItemOID="IT.EC.ECDOSFRM" Mandatory="No" OrderNumber="19"
                    Role="Variable Qualifier"/>
                <ItemRef ItemOID="IT.EC.ECDOSFRQ" Mandatory="No" OrderNumber="20"
                    Role="Variable Qualifier"/>
                <ItemRef ItemOID="IT.EC.ECDOSTOT" Mandatory="No" OrderNumber="21"
                    Role="Record Qualifier"/>
                <ItemRef ItemOID="IT.EC.ECDOSRGM" Mandatory="No" OrderNumber="22"
                    Role="Variable Qualifier"/>
                <ItemRef ItemOID="IT.EC.ECROUTE" Mandatory="No" OrderNumber="23"
                    Role="Variable Qualifier"/>
                <ItemRef ItemOID="IT.EC.ECLOT" Mandatory="No" OrderNumber="24"
                    Role="Record Qualifier"/>
                <ItemRef ItemOID="IT.EC.ECLOC" Mandatory="No" OrderNumber="25"
                    Role="Record Qualifier"/>
                <ItemRef ItemOID="IT.EC.ECLAT" Mandatory="No" OrderNumber="26"
                    Role="Record Qualifier"/>
                <ItemRef ItemOID="IT.EC.ECDIR" Mandatory="No" OrderNumber="27"
                    Role="Variable Qualifier"/>
                <ItemRef ItemOID="IT.EC.ECPORTOT" Mandatory="No" OrderNumber="28"
                    Role="Variable Qualifier"/>
                <ItemRef ItemOID="IT.EC.ECFAST" Mandatory="No" OrderNumber="29"
                    Role="Record Qualifier"/>
                <ItemRef ItemOID="IT.EC.ECPSTRG" Mandatory="No" OrderNumber="30"
                    Role="Variable Qualifier"/>
                <ItemRef ItemOID="IT.EC.ECPSTRGU" Mandatory="No" OrderNumber="31"
                    Role="Variable Qualifier"/>
                <ItemRef ItemOID="IT.EC.ECADJ" Mandatory="No" OrderNumber="32"
                    Role="Record Qualifier"/>
                <ItemRef ItemOID="IT.EC.EPOCH" Mandatory="No" OrderNumber="33" Role="Timing"/>
                <ItemRef ItemOID="IT.EC.ECSTDTC" Mandatory="No" OrderNumber="34" Role="Timing"/>
                <ItemRef ItemOID="IT.EC.ECENDTC" Mandatory="No" OrderNumber="35" Role="Timing"/>
                <ItemRef ItemOID="IT.EC.ECSTDY" Mandatory="No" OrderNumber="36" Role="Timing"/>
                <ItemRef ItemOID="IT.EC.ECENDY" Mandatory="No" OrderNumber="37" Role="Timing"/>
                <ItemRef ItemOID="IT.EC.ECDUR" Mandatory="No" OrderNumber="38" Role="Timing"/>
                <ItemRef ItemOID="IT.EC.ECTPT" Mandatory="No" OrderNumber="39" Role="Timing"/>
                <ItemRef ItemOID="IT.EC.ECTPTNUM" Mandatory="No" OrderNumber="40" Role="Timing"/>
                <ItemRef ItemOID="IT.EC.ECELTM" Mandatory="No" OrderNumber="41" Role="Timing"/>
                <ItemRef ItemOID="IT.EC.ECTPTREF" Mandatory="No" OrderNumber="42" Role="Timing"/>
                <ItemRef ItemOID="IT.EC.ECRFTDTC" Mandatory="No" OrderNumber="43" Role="Timing"/>
                <def:Class Name="INTERVENTIONS"/>
            </ItemGroupDef>
            <ItemGroupDef Domain="PR" Name="PR" OID="IGD.PR" Purpose="Tabulation" Repeating="No"
                def:Structure="One record per recorded procedure per occurrence per subject">
                <Description>
                    <TranslatedText xml:lang="en">Procedures</TranslatedText>
                </Description>
                <ItemRef ItemOID="IT.PR.STUDYID" Mandatory="No" OrderNumber="1" Role="Identifier"/>
                <ItemRef ItemOID="IT.PR.DOMAIN" Mandatory="No" OrderNumber="2" Role="Identifier"/>
                <ItemRef ItemOID="IT.PR.USUBJID" Mandatory="No" OrderNumber="3" Role="Identifier"/>
                <ItemRef ItemOID="IT.PR.PRSEQ" Mandatory="No" OrderNumber="4" Role="Identifier"/>
                <ItemRef ItemOID="IT.PR.PRGRPID" Mandatory="No" OrderNumber="5" Role="Identifier"/>
                <ItemRef ItemOID="IT.PR.PRSPID" Mandatory="No" OrderNumber="6" Role="Identifier"/>
                <ItemRef ItemOID="IT.PR.PRLNKID" Mandatory="No" OrderNumber="7" Role="Identifier"/>
                <ItemRef ItemOID="IT.PR.PRLNKGRP" Mandatory="No" OrderNumber="8" Role="Identifier"/>
                <ItemRef ItemOID="IT.PR.PRTRT" Mandatory="No" OrderNumber="9" Role="Topic"/>
                <ItemRef ItemOID="IT.PR.PRDECOD" Mandatory="No" OrderNumber="10"
                    Role="Synonym Qualifier"/>
                <ItemRef ItemOID="IT.PR.PRCAT" Mandatory="No" OrderNumber="11"
                    Role="Grouping Qualifier"/>
                <ItemRef ItemOID="IT.PR.PRSCAT" Mandatory="No" OrderNumber="12"
                    Role="Grouping Qualifier"/>
                <ItemRef ItemOID="IT.PR.PRPRESP" Mandatory="No" OrderNumber="13"
                    Role="Record Qualifier"/>
                <ItemRef ItemOID="IT.PR.PROCCUR" Mandatory="No" OrderNumber="14"
                    Role="Record Qualifier"/>
                <ItemRef ItemOID="IT.PR.PRINDC" Mandatory="No" OrderNumber="15"
                    Role="Record Qualifier"/>
                <ItemRef ItemOID="IT.PR.PRDOSE" Mandatory="No" OrderNumber="16"
                    Role="Record Qualifier"/>
                <ItemRef ItemOID="IT.PR.PRDOSTXT" Mandatory="No" OrderNumber="17"
                    Role="Record Qualifier"/>
                <ItemRef ItemOID="IT.PR.PRDOSU" Mandatory="No" OrderNumber="18"
                    Role="Variable Qualifier"/>
                <ItemRef ItemOID="IT.PR.PRDOSFRM" Mandatory="No" OrderNumber="19"
                    Role="Variable Qualifier"/>
                <ItemRef ItemOID="IT.PR.PRDOSFRQ" Mandatory="No" OrderNumber="20"
                    Role="Variable Qualifier"/>
                <ItemRef ItemOID="IT.PR.PRDOSRGM" Mandatory="No" OrderNumber="21"
                    Role="Variable Qualifier"/>
                <ItemRef ItemOID="IT.PR.PRROUTE" Mandatory="No" OrderNumber="22"
                    Role="Variable Qualifier"/>
                <ItemRef ItemOID="IT.PR.PRLOC" Mandatory="No" OrderNumber="23"
                    Role="Record Qualifier"/>
                <ItemRef ItemOID="IT.PR.PRLAT" Mandatory="No" OrderNumber="24"
                    Role="Variable Qualifier"/>
                <ItemRef ItemOID="IT.PR.PRDIR" Mandatory="No" OrderNumber="25"
                    Role="Variable Qualifier"/>
                <ItemRef ItemOID="IT.PR.PRPORTOT" Mandatory="No" OrderNumber="26"
                    Role="Variable Qualifier"/>
                <ItemRef ItemOID="IT.PR.VISITNUM" Mandatory="No" OrderNumber="27" Role="Timing"/>
                <ItemRef ItemOID="IT.PR.VISIT" Mandatory="No" OrderNumber="28" Role="Timing"/>
                <ItemRef ItemOID="IT.PR.VISITDY" Mandatory="No" OrderNumber="29" Role="Timing"/>
                <ItemRef ItemOID="IT.PR.PRSTDTC" Mandatory="No" OrderNumber="30" Role="Timing"/>
                <ItemRef ItemOID="IT.PR.PRENDTC" Mandatory="No" OrderNumber="31" Role="Timing"/>
                <ItemRef ItemOID="IT.PR.PRSTDY" Mandatory="No" OrderNumber="32" Role="Timing"/>
                <ItemRef ItemOID="IT.PR.PRENDY" Mandatory="No" OrderNumber="33" Role="Timing"/>
                <ItemRef ItemOID="IT.PR.PRDUR" Mandatory="No" OrderNumber="34" Role="Timing"/>
                <ItemRef ItemOID="IT.PR.PRTPT" Mandatory="No" OrderNumber="35" Role="Timing"/>
                <ItemRef ItemOID="IT.PR.PRTPTNUM" Mandatory="No" OrderNumber="36" Role="Timing"/>
                <ItemRef ItemOID="IT.PR.PRELTM" Mandatory="No" OrderNumber="37" Role="Timing"/>
                <ItemRef ItemOID="IT.PR.PRTPTREF" Mandatory="No" OrderNumber="38" Role="Timing"/>
                <ItemRef ItemOID="IT.PR.PRRFTDTC" Mandatory="No" OrderNumber="39" Role="Timing"/>
                <ItemRef ItemOID="IT.PR.PRSTRTPT" Mandatory="No" OrderNumber="40" Role="Timing"/>
                <ItemRef ItemOID="IT.PR.PRSTTPT" Mandatory="No" OrderNumber="41" Role="Timing"/>
                <ItemRef ItemOID="IT.PR.PRENRTPT" Mandatory="No" OrderNumber="42" Role="Timing"/>
                <ItemRef ItemOID="IT.PR.PRENTPT" Mandatory="No" OrderNumber="43" Role="Timing"/>
                <def:Class Name="INTERVENTIONS"/>
            </ItemGroupDef>
            <ItemGroupDef Domain="SU" Name="SU" OID="IGD.SU" Purpose="Tabulation" Repeating="No"
                def:Structure="One record per substance type per reported occurrence per subject">
                <Description>
                    <TranslatedText xml:lang="en">Substance Use</TranslatedText>
                </Description>
                <ItemRef ItemOID="IT.SU.STUDYID" Mandatory="No" OrderNumber="1" Role="Identifier"/>
                <ItemRef ItemOID="IT.SU.DOMAIN" Mandatory="No" OrderNumber="2" Role="Identifier"/>
                <ItemRef ItemOID="IT.SU.USUBJID" Mandatory="No" OrderNumber="3" Role="Identifier"/>
                <ItemRef ItemOID="IT.SU.SUSEQ" Mandatory="No" OrderNumber="4" Role="Identifier"/>
                <ItemRef ItemOID="IT.SU.SUGRPID" Mandatory="No" OrderNumber="5" Role="Identifier"/>
                <ItemRef ItemOID="IT.SU.SUSPID" Mandatory="No" OrderNumber="6" Role="Identifier"/>
                <ItemRef ItemOID="IT.SU.SUTRT" Mandatory="No" OrderNumber="7" Role="Topic"/>
                <ItemRef ItemOID="IT.SU.SUMODIFY" Mandatory="No" OrderNumber="8"
                    Role="Synonym Qualifier"/>
                <ItemRef ItemOID="IT.SU.SUDECOD" Mandatory="No" OrderNumber="9"
                    Role="Synonym Qualifier"/>
                <ItemRef ItemOID="IT.SU.SUCAT" Mandatory="No" OrderNumber="10"
                    Role="Grouping Qualifier"/>
                <ItemRef ItemOID="IT.SU.SUSCAT" Mandatory="No" OrderNumber="11"
                    Role="Grouping Qualifier"/>
                <ItemRef ItemOID="IT.SU.SUPRESP" Mandatory="No" OrderNumber="12"
                    Role="Variable Qualifier"/>
                <ItemRef ItemOID="IT.SU.SUOCCUR" Mandatory="No" OrderNumber="13"
                    Role="Record Qualifier"/>
                <ItemRef ItemOID="IT.SU.SUSTAT" Mandatory="No" OrderNumber="14"
                    Role="Record Qualifier"/>
                <ItemRef ItemOID="IT.SU.SUREASND" Mandatory="No" OrderNumber="15"
                    Role="Record Qualifier"/>
                <ItemRef ItemOID="IT.SU.SUCLAS" Mandatory="No" OrderNumber="16"
                    Role="Variable Qualifier"/>
                <ItemRef ItemOID="IT.SU.SUCLASCD" Mandatory="No" OrderNumber="17"
                    Role="Variable Qualifier"/>
                <ItemRef ItemOID="IT.SU.SUDOSE" Mandatory="No" OrderNumber="18"
                    Role="Record Qualifier"/>
                <ItemRef ItemOID="IT.SU.SUDOSTXT" Mandatory="No" OrderNumber="19"
                    Role="Record Qualifier"/>
                <ItemRef ItemOID="IT.SU.SUDOSU" Mandatory="No" OrderNumber="20"
                    Role="Variable Qualifier"/>
                <ItemRef ItemOID="IT.SU.SUDOSFRM" Mandatory="No" OrderNumber="21"
                    Role="Variable Qualifier"/>
                <ItemRef ItemOID="IT.SU.SUDOSFRQ" Mandatory="No" OrderNumber="22"
                    Role="Variable Qualifier"/>
                <ItemRef ItemOID="IT.SU.SUDOSTOT" Mandatory="No" OrderNumber="23"
                    Role="Record Qualifier"/>
                <ItemRef ItemOID="IT.SU.SUROUTE" Mandatory="No" OrderNumber="24"
                    Role="Variable Qualifier"/>
                <ItemRef ItemOID="IT.SU.SUSTDTC" Mandatory="No" OrderNumber="25" Role="Timing"/>
                <ItemRef ItemOID="IT.SU.SUENDTC" Mandatory="No" OrderNumber="26" Role="Timing"/>
                <ItemRef ItemOID="IT.SU.SUSTDY" Mandatory="No" OrderNumber="27" Role="Timing"/>
                <ItemRef ItemOID="IT.SU.SUENDY" Mandatory="No" OrderNumber="28" Role="Timing"/>
                <ItemRef ItemOID="IT.SU.SUDUR" Mandatory="No" OrderNumber="29" Role="Timing"/>
                <ItemRef ItemOID="IT.SU.SUSTRF" Mandatory="No" OrderNumber="30" Role="Timing"/>
                <ItemRef ItemOID="IT.SU.SUENRF" Mandatory="No" OrderNumber="31" Role="Timing"/>
                <ItemRef ItemOID="IT.SU.SUSTRTPT" Mandatory="No" OrderNumber="32" Role="Timing"/>
                <ItemRef ItemOID="IT.SU.SUSTTPT" Mandatory="No" OrderNumber="33" Role="Timing"/>
                <ItemRef ItemOID="IT.SU.SUENRTPT" Mandatory="No" OrderNumber="34" Role="Timing"/>
                <ItemRef ItemOID="IT.SU.SUENTPT" Mandatory="No" OrderNumber="35" Role="Timing"/>
                <def:Class Name="INTERVENTIONS"/>
            </ItemGroupDef>
            <ItemGroupDef Domain="AE" Name="AE" OID="IGD.AE" Purpose="Tabulation" Repeating="No"
                def:Structure="One record per adverse event per subject">
                <Description>
                    <TranslatedText xml:lang="en">Adverse Events</TranslatedText>
                </Description>
                <ItemRef ItemOID="IT.AE.STUDYID" Mandatory="No" OrderNumber="1" Role="Identifier"/>
                <ItemRef ItemOID="IT.AE.DOMAIN" Mandatory="No" OrderNumber="2" Role="Identifier"/>
                <ItemRef ItemOID="IT.AE.USUBJID" Mandatory="No" OrderNumber="3" Role="Identifier"/>
                <ItemRef ItemOID="IT.AE.AESEQ" Mandatory="No" OrderNumber="4" Role="Identifier"/>
                <ItemRef ItemOID="IT.AE.AEGRPID" Mandatory="No" OrderNumber="5" Role="Identifier"/>
                <ItemRef ItemOID="IT.AE.AEREFID" Mandatory="No" OrderNumber="6" Role="Identifier"/>
                <ItemRef ItemOID="IT.AE.AESPID" Mandatory="No" OrderNumber="7" Role="Identifier"/>
                <ItemRef ItemOID="IT.AE.AETERM" Mandatory="No" OrderNumber="8" Role="Topic"/>
                <ItemRef ItemOID="IT.AE.AEMODIFY" Mandatory="No" OrderNumber="9"
                    Role="Synonym Qualifier"/>
                <ItemRef ItemOID="IT.AE.AELLT" Mandatory="No" OrderNumber="10"
                    Role="Variable Qualifier"/>
                <ItemRef ItemOID="IT.AE.AELLTCD" Mandatory="No" OrderNumber="11"
                    Role="Variable Qualifier"/>
                <ItemRef ItemOID="IT.AE.AEDECOD" Mandatory="No" OrderNumber="12"
                    Role="Synonym Qualifier"/>
                <ItemRef ItemOID="IT.AE.AEPTCD" Mandatory="No" OrderNumber="13"
                    Role="Variable Qualifier"/>
                <ItemRef ItemOID="IT.AE.AEHLT" Mandatory="No" OrderNumber="14"
                    Role="Variable Qualifier"/>
                <ItemRef ItemOID="IT.AE.AEHLTCD" Mandatory="No" OrderNumber="15"
                    Role="Variable Qualifier"/>
                <ItemRef ItemOID="IT.AE.AEHLGT" Mandatory="No" OrderNumber="16"
                    Role="Variable Qualifier"/>
                <ItemRef ItemOID="IT.AE.AEHLGTCD" Mandatory="No" OrderNumber="17"
                    Role="Variable Qualifier"/>
                <ItemRef ItemOID="IT.AE.AECAT" Mandatory="No" OrderNumber="18"
                    Role="Grouping Qualifier"/>
                <ItemRef ItemOID="IT.AE.AESCAT" Mandatory="No" OrderNumber="19"
                    Role="Grouping Qualifier"/>
                <ItemRef ItemOID="IT.AE.AEPRESP" Mandatory="No" OrderNumber="20"
                    Role="Variable Qualifier"/>
                <ItemRef ItemOID="IT.AE.AEBODSYS" Mandatory="No" OrderNumber="21"
                    Role="Record Qualifier"/>
                <ItemRef ItemOID="IT.AE.AEBDSYCD" Mandatory="No" OrderNumber="22"
                    Role="Variable Qualifier"/>
                <ItemRef ItemOID="IT.AE.AESOC" Mandatory="No" OrderNumber="23"
                    Role="Variable Qualifier"/>
                <ItemRef ItemOID="IT.AE.AESOCCD" Mandatory="No" OrderNumber="24"
                    Role="Variable Qualifier"/>
                <ItemRef ItemOID="IT.AE.AELOC" Mandatory="No" OrderNumber="25"
                    Role="Record Qualifier"/>
                <ItemRef ItemOID="IT.AE.AESEV" Mandatory="No" OrderNumber="26"
                    Role="Record Qualifier"/>
                <ItemRef ItemOID="IT.AE.AESER" Mandatory="No" OrderNumber="27"
                    Role="Record Qualifier"/>
                <ItemRef ItemOID="IT.AE.AEACN" Mandatory="No" OrderNumber="28"
                    Role="Record Qualifier"/>
                <ItemRef ItemOID="IT.AE.AEACNOTH" Mandatory="No" OrderNumber="29"
                    Role="Record Qualifier"/>
                <ItemRef ItemOID="IT.AE.AEREL" Mandatory="No" OrderNumber="30"
                    Role="Record Qualifier"/>
                <ItemRef ItemOID="IT.AE.AERELNST" Mandatory="No" OrderNumber="31"
                    Role="Record Qualifier"/>
                <ItemRef ItemOID="IT.AE.AEPATT" Mandatory="No" OrderNumber="32"
                    Role="Record Qualifier"/>
                <ItemRef ItemOID="IT.AE.AEOUT" Mandatory="No" OrderNumber="33"
                    Role="Record Qualifier"/>
                <ItemRef ItemOID="IT.AE.AESCAN" Mandatory="No" OrderNumber="34"
                    Role="Record Qualifier"/>
                <ItemRef ItemOID="IT.AE.AESCONG" Mandatory="No" OrderNumber="35"
                    Role="Record Qualifier"/>
                <ItemRef ItemOID="IT.AE.AESDISAB" Mandatory="No" OrderNumber="36"
                    Role="Record Qualifier"/>
                <ItemRef ItemOID="IT.AE.AESDTH" Mandatory="No" OrderNumber="37"
                    Role="Record Qualifier"/>
                <ItemRef ItemOID="IT.AE.AESHOSP" Mandatory="No" OrderNumber="38"
                    Role="Record Qualifier"/>
                <ItemRef ItemOID="IT.AE.AESLIFE" Mandatory="No" OrderNumber="39"
                    Role="Record Qualifier"/>
                <ItemRef ItemOID="IT.AE.AESOD" Mandatory="No" OrderNumber="40"
                    Role="Record Qualifier"/>
                <ItemRef ItemOID="IT.AE.AESMIE" Mandatory="No" OrderNumber="41"
                    Role="Record Qualifier"/>
                <ItemRef ItemOID="IT.AE.AECONTRT" Mandatory="No" OrderNumber="42"
                    Role="Record Qualifier"/>
                <ItemRef ItemOID="IT.AE.AETOXGR" Mandatory="No" OrderNumber="43"
                    Role="Record Qualifier"/>
                <ItemRef ItemOID="IT.AE.AESTDTC" Mandatory="No" OrderNumber="44" Role="Timing"/>
                <ItemRef ItemOID="IT.AE.AEENDTC" Mandatory="No" OrderNumber="45" Role="Timing"/>
                <ItemRef ItemOID="IT.AE.AESTDY" Mandatory="No" OrderNumber="46" Role="Timing"/>
                <ItemRef ItemOID="IT.AE.AEENDY" Mandatory="No" OrderNumber="47" Role="Timing"/>
                <ItemRef ItemOID="IT.AE.AEDUR" Mandatory="No" OrderNumber="48" Role="Timing"/>
                <ItemRef ItemOID="IT.AE.AEENRF" Mandatory="No" OrderNumber="49" Role="Timing"/>
                <ItemRef ItemOID="IT.AE.AEENRTPT" Mandatory="No" OrderNumber="50" Role="Timing"/>
                <ItemRef ItemOID="IT.AE.AEENTPT" Mandatory="No" OrderNumber="51" Role="Timing"/>
                <def:Class Name="EVENTS"/>
            </ItemGroupDef>
            <ItemGroupDef Domain="CE" Name="CE" OID="IGD.CE" Purpose="Tabulation" Repeating="No"
                def:Structure="One record per event per subject">
                <Description>
                    <TranslatedText xml:lang="en">Clinical Events</TranslatedText>
                </Description>
                <ItemRef ItemOID="IT.CE.STUDYID" Mandatory="No" OrderNumber="1" Role="Identifier"/>
                <ItemRef ItemOID="IT.CE.DOMAIN" Mandatory="No" OrderNumber="2" Role="Identifier"/>
                <ItemRef ItemOID="IT.CE.USUBJID" Mandatory="No" OrderNumber="3" Role="Identifier"/>
                <ItemRef ItemOID="IT.CE.CESEQ" Mandatory="No" OrderNumber="4" Role="Identifier"/>
                <ItemRef ItemOID="IT.CE.CEGRPID" Mandatory="No" OrderNumber="5" Role="Identifier"/>
                <ItemRef ItemOID="IT.CE.CEREFID" Mandatory="No" OrderNumber="6" Role="Identifier"/>
                <ItemRef ItemOID="IT.CE.CESPID" Mandatory="No" OrderNumber="7" Role="Identifier"/>
                <ItemRef ItemOID="IT.CE.CETERM" Mandatory="No" OrderNumber="8" Role="Topic"/>
                <ItemRef ItemOID="IT.CE.CEDECOD" Mandatory="No" OrderNumber="9"
                    Role="Synonym Qualifier"/>
                <ItemRef ItemOID="IT.CE.CECAT" Mandatory="No" OrderNumber="10"
                    Role="Grouping Qualifier"/>
                <ItemRef ItemOID="IT.CE.CESCAT" Mandatory="No" OrderNumber="11"
                    Role="Grouping Qualifier"/>
                <ItemRef ItemOID="IT.CE.CEPRESP" Mandatory="No" OrderNumber="12"
                    Role="Variable Qualifier"/>
                <ItemRef ItemOID="IT.CE.CEOCCUR" Mandatory="No" OrderNumber="13"
                    Role="Record Qualifier"/>
                <ItemRef ItemOID="IT.CE.CESTAT" Mandatory="No" OrderNumber="14"
                    Role="Record Qualifier"/>
                <ItemRef ItemOID="IT.CE.CEREASND" Mandatory="No" OrderNumber="15"
                    Role="Record Qualifier"/>
                <ItemRef ItemOID="IT.CE.CEBODSYS" Mandatory="No" OrderNumber="16"
                    Role="Record Qualifier"/>
                <ItemRef ItemOID="IT.CE.CESEV" Mandatory="No" OrderNumber="17"
                    Role="Record Qualifier"/>
                <ItemRef ItemOID="IT.CE.CEDTC" Mandatory="No" OrderNumber="18" Role="Timing"/>
                <ItemRef ItemOID="IT.CE.CESTDTC" Mandatory="No" OrderNumber="19" Role="Timing"/>
                <ItemRef ItemOID="IT.CE.CEENDTC" Mandatory="No" OrderNumber="20" Role="Timing"/>
                <ItemRef ItemOID="IT.CE.CEDY" Mandatory="No" OrderNumber="21" Role="Timing"/>
                <ItemRef ItemOID="IT.CE.CESTRF" Mandatory="No" OrderNumber="22" Role="Timing"/>
                <ItemRef ItemOID="IT.CE.CEENRF" Mandatory="No" OrderNumber="23" Role="Timing"/>
                <ItemRef ItemOID="IT.CE.CESTRTPT" Mandatory="No" OrderNumber="24" Role="Timing"/>
                <ItemRef ItemOID="IT.CE.CESTTPT" Mandatory="No" OrderNumber="25" Role="Timing"/>
                <ItemRef ItemOID="IT.CE.CEENRTPT" Mandatory="No" OrderNumber="26" Role="Timing"/>
                <ItemRef ItemOID="IT.CE.CEENTPT" Mandatory="No" OrderNumber="27" Role="Timing"/>
                <def:Class Name="EVENTS"/>
            </ItemGroupDef>
            <ItemGroupDef Domain="DS" Name="DS" OID="IGD.DS" Purpose="Tabulation" Repeating="No"
                def:Structure="One record per disposition status or protocol milestone per subject">
                <Description>
                    <TranslatedText xml:lang="en">Disposition</TranslatedText>
                </Description>
                <ItemRef ItemOID="IT.DS.STUDYID" Mandatory="No" OrderNumber="1" Role="Identifier"/>
                <ItemRef ItemOID="IT.DS.DOMAIN" Mandatory="No" OrderNumber="2" Role="Identifier"/>
                <ItemRef ItemOID="IT.DS.USUBJID" Mandatory="No" OrderNumber="3" Role="Identifier"/>
                <ItemRef ItemOID="IT.DS.DSSEQ" Mandatory="No" OrderNumber="4" Role="Identifier"/>
                <ItemRef ItemOID="IT.DS.DSGRPID" Mandatory="No" OrderNumber="5" Role="Identifier"/>
                <ItemRef ItemOID="IT.DS.DSREFID" Mandatory="No" OrderNumber="6" Role="Identifier"/>
                <ItemRef ItemOID="IT.DS.DSSPID" Mandatory="No" OrderNumber="7" Role="Identifier"/>
                <ItemRef ItemOID="IT.DS.DSTERM" Mandatory="No" OrderNumber="8" Role="Topic"/>
                <ItemRef ItemOID="IT.DS.DSDECOD" Mandatory="No" OrderNumber="9"
                    Role="Synonym Qualifier"/>
                <ItemRef ItemOID="IT.DS.DSCAT" Mandatory="No" OrderNumber="10"
                    Role="Grouping Qualifier"/>
                <ItemRef ItemOID="IT.DS.DSSCAT" Mandatory="No" OrderNumber="11"
                    Role="Grouping Qualifier"/>
                <ItemRef ItemOID="IT.DS.EPOCH" Mandatory="No" OrderNumber="12" Role="Timing"/>
                <ItemRef ItemOID="IT.DS.DSDTC" Mandatory="No" OrderNumber="13" Role="Timing"/>
                <ItemRef ItemOID="IT.DS.DSSTDTC" Mandatory="No" OrderNumber="14" Role="Timing"/>
                <ItemRef ItemOID="IT.DS.DSSTDY" Mandatory="No" OrderNumber="15" Role="Timing"/>
                <def:Class Name="EVENTS"/>
            </ItemGroupDef>
            <ItemGroupDef Domain="DV" Name="DV" OID="IGD.DV" Purpose="Tabulation" Repeating="No"
                def:Structure="One record per protocol deviation per subject">
                <Description>
                    <TranslatedText xml:lang="en">Protocol Deviations</TranslatedText>
                </Description>
                <ItemRef ItemOID="IT.DV.STUDYID" Mandatory="No" OrderNumber="1" Role="Identifier"/>
                <ItemRef ItemOID="IT.DV.DOMAIN" Mandatory="No" OrderNumber="2" Role="Identifier"/>
                <ItemRef ItemOID="IT.DV.USUBJID" Mandatory="No" OrderNumber="3" Role="Identifier"/>
                <ItemRef ItemOID="IT.DV.DVSEQ" Mandatory="No" OrderNumber="4" Role="Identifier"/>
                <ItemRef ItemOID="IT.DV.DVREFID" Mandatory="No" OrderNumber="5" Role="Identifier"/>
                <ItemRef ItemOID="IT.DV.DVSPID" Mandatory="No" OrderNumber="6" Role="Identifier"/>
                <ItemRef ItemOID="IT.DV.DVTERM" Mandatory="No" OrderNumber="7" Role="Topic"/>
                <ItemRef ItemOID="IT.DV.DVDECOD" Mandatory="No" OrderNumber="8"
                    Role="Synonym Qualifier"/>
                <ItemRef ItemOID="IT.DV.DVCAT" Mandatory="No" OrderNumber="9"
                    Role="Grouping Qualifier"/>
                <ItemRef ItemOID="IT.DV.DVSCAT" Mandatory="No" OrderNumber="10"
                    Role="Grouping Qualifier"/>
                <ItemRef ItemOID="IT.DV.EPOCH" Mandatory="No" OrderNumber="11" Role="Timing"/>
                <ItemRef ItemOID="IT.DV.DVSTDTC" Mandatory="No" OrderNumber="12" Role="Timing"/>
                <ItemRef ItemOID="IT.DV.DVENDTC" Mandatory="No" OrderNumber="13" Role="Timing"/>
                <def:Class Name="EVENTS"/>
            </ItemGroupDef>
            <ItemGroupDef Domain="HO" Name="HO" OID="IGD.HO" Purpose="Tabulation" Repeating="No"
                def:Structure="One record per healthcare encounter per subject">
                <Description>
                    <TranslatedText xml:lang="en">Healthcare Encounters</TranslatedText>
                </Description>
                <ItemRef ItemOID="IT.HO.STUDYID" Mandatory="No" OrderNumber="1" Role="Identifier"/>
                <ItemRef ItemOID="IT.HO.DOMAIN" Mandatory="No" OrderNumber="2" Role="Identifier"/>
                <ItemRef ItemOID="IT.HO.USUBJID" Mandatory="No" OrderNumber="3" Role="Identifier"/>
                <ItemRef ItemOID="IT.HO.HOSEQ" Mandatory="No" OrderNumber="4" Role="Identifier"/>
                <ItemRef ItemOID="IT.HO.HOGRPID" Mandatory="No" OrderNumber="5" Role="Identifier"/>
                <ItemRef ItemOID="IT.HO.HOREFID" Mandatory="No" OrderNumber="6" Role="Identifier"/>
                <ItemRef ItemOID="IT.HO.HOSPID" Mandatory="No" OrderNumber="7" Role="Identifier"/>
                <ItemRef ItemOID="IT.HO.HOTERM" Mandatory="No" OrderNumber="8" Role="Topic"/>
                <ItemRef ItemOID="IT.HO.HODECOD" Mandatory="No" OrderNumber="9"
                    Role="Synonym Qualifier"/>
                <ItemRef ItemOID="IT.HO.HOCAT" Mandatory="No" OrderNumber="10"
                    Role="Grouping Qualifier"/>
                <ItemRef ItemOID="IT.HO.HOSCAT" Mandatory="No" OrderNumber="11"
                    Role="Grouping Qualifier"/>
                <ItemRef ItemOID="IT.HO.HOPRESP" Mandatory="No" OrderNumber="12"
                    Role="Record Qualifier"/>
                <ItemRef ItemOID="IT.HO.HOOCCUR" Mandatory="No" OrderNumber="13"
                    Role="Record Qualifier"/>
                <ItemRef ItemOID="IT.HO.HOSTAT" Mandatory="No" OrderNumber="14"
                    Role="Record Qualifier"/>
                <ItemRef ItemOID="IT.HO.HOREASND" Mandatory="No" OrderNumber="15"
                    Role="Record Qualifier"/>
                <ItemRef ItemOID="IT.HO.HODTC" Mandatory="No" OrderNumber="16" Role="Timing"/>
                <ItemRef ItemOID="IT.HO.HOSTDTC" Mandatory="No" OrderNumber="17" Role="Timing"/>
                <ItemRef ItemOID="IT.HO.HOENDTC" Mandatory="No" OrderNumber="18" Role="Timing"/>
                <ItemRef ItemOID="IT.HO.HODY" Mandatory="No" OrderNumber="19" Role="Timing"/>
                <ItemRef ItemOID="IT.HO.HOSTDY" Mandatory="No" OrderNumber="20" Role="Timing"/>
                <ItemRef ItemOID="IT.HO.HOENDY" Mandatory="No" OrderNumber="21" Role="Timing"/>
                <ItemRef ItemOID="IT.HO.HODUR" Mandatory="No" OrderNumber="22" Role="Timing"/>
                <ItemRef ItemOID="IT.HO.HOSTRTPT" Mandatory="No" OrderNumber="23" Role="Timing"/>
                <ItemRef ItemOID="IT.HO.HOSTTPT" Mandatory="No" OrderNumber="24" Role="Timing"/>
                <ItemRef ItemOID="IT.HO.HOENRTPT" Mandatory="No" OrderNumber="25" Role="Timing"/>
                <ItemRef ItemOID="IT.HO.HOENTPT" Mandatory="No" OrderNumber="26" Role="Timing"/>
                <def:Class Name="EVENTS"/>
            </ItemGroupDef>
            <ItemGroupDef Domain="MH" Name="MH" OID="IGD.MH" Purpose="Tabulation" Repeating="No"
                def:Structure="One record per medical history event per subject">
                <Description>
                    <TranslatedText xml:lang="en">Medical History</TranslatedText>
                </Description>
                <ItemRef ItemOID="IT.MH.STUDYID" Mandatory="No" OrderNumber="1" Role="Identifier"/>
                <ItemRef ItemOID="IT.MH.DOMAIN" Mandatory="No" OrderNumber="2" Role="Identifier"/>
                <ItemRef ItemOID="IT.MH.USUBJID" Mandatory="No" OrderNumber="3" Role="Identifier"/>
                <ItemRef ItemOID="IT.MH.MHSEQ" Mandatory="No" OrderNumber="4" Role="Identifier"/>
                <ItemRef ItemOID="IT.MH.MHGRPID" Mandatory="No" OrderNumber="5" Role="Identifier"/>
                <ItemRef ItemOID="IT.MH.MHREFID" Mandatory="No" OrderNumber="6" Role="Identifier"/>
                <ItemRef ItemOID="IT.MH.MHSPID" Mandatory="No" OrderNumber="7" Role="Identifier"/>
                <ItemRef ItemOID="IT.MH.MHTERM" Mandatory="No" OrderNumber="8" Role="Topic"/>
                <ItemRef ItemOID="IT.MH.MHMODIFY" Mandatory="No" OrderNumber="9"
                    Role="Synonym Qualifier"/>
                <ItemRef ItemOID="IT.MH.MHDECOD" Mandatory="No" OrderNumber="10"
                    Role="Synonym Qualifier"/>
                <ItemRef ItemOID="IT.MH.MHCAT" Mandatory="No" OrderNumber="11"
                    Role="Grouping Qualifier"/>
                <ItemRef ItemOID="IT.MH.MHSCAT" Mandatory="No" OrderNumber="12"
                    Role="Grouping Qualifier"/>
                <ItemRef ItemOID="IT.MH.MHPRESP" Mandatory="No" OrderNumber="13"
                    Role="Variable Qualifier"/>
                <ItemRef ItemOID="IT.MH.MHOCCUR" Mandatory="No" OrderNumber="14"
                    Role="Record Qualifier"/>
                <ItemRef ItemOID="IT.MH.MHSTAT" Mandatory="No" OrderNumber="15"
                    Role="Record Qualifier"/>
                <ItemRef ItemOID="IT.MH.MHREASND" Mandatory="No" OrderNumber="16"
                    Role="Record Qualifier"/>
                <ItemRef ItemOID="IT.MH.MHBODSYS" Mandatory="No" OrderNumber="17"
                    Role="Record Qualifier"/>
                <ItemRef ItemOID="IT.MH.MHDTC" Mandatory="No" OrderNumber="18" Role="Timing"/>
                <ItemRef ItemOID="IT.MH.MHSTDTC" Mandatory="No" OrderNumber="19" Role="Timing"/>
                <ItemRef ItemOID="IT.MH.MHENDTC" Mandatory="No" OrderNumber="20" Role="Timing"/>
                <ItemRef ItemOID="IT.MH.MHDY" Mandatory="No" OrderNumber="21" Role="Timing"/>
                <ItemRef ItemOID="IT.MH.MHENRF" Mandatory="No" OrderNumber="22" Role="Timing"/>
                <ItemRef ItemOID="IT.MH.MHENRTPT" Mandatory="No" OrderNumber="23" Role="Timing"/>
                <ItemRef ItemOID="IT.MH.MHENTPT" Mandatory="No" OrderNumber="24" Role="Timing"/>
                <def:Class Name="EVENTS"/>
            </ItemGroupDef>
            <ItemGroupDef Domain="DA" Name="DA" OID="IGD.DA" Purpose="Tabulation" Repeating="No"
                def:Structure="One record per drug accountability finding per subject">
                <Description>
                    <TranslatedText xml:lang="en">Drug Accountability</TranslatedText>
                </Description>
                <ItemRef ItemOID="IT.DA.STUDYID" Mandatory="No" OrderNumber="1" Role="Identifier"/>
                <ItemRef ItemOID="IT.DA.DOMAIN" Mandatory="No" OrderNumber="2" Role="Identifier"/>
                <ItemRef ItemOID="IT.DA.USUBJID" Mandatory="No" OrderNumber="3" Role="Identifier"/>
                <ItemRef ItemOID="IT.DA.DASEQ" Mandatory="No" OrderNumber="4" Role="Identifier"/>
                <ItemRef ItemOID="IT.DA.DAGRPID" Mandatory="No" OrderNumber="5" Role="Identifier"/>
                <ItemRef ItemOID="IT.DA.DAREFID" Mandatory="No" OrderNumber="6" Role="Identifier"/>
                <ItemRef ItemOID="IT.DA.DASPID" Mandatory="No" OrderNumber="7" Role="Identifier"/>
                <ItemRef ItemOID="IT.DA.DATESTCD" Mandatory="No" OrderNumber="8" Role="Topic"/>
                <ItemRef ItemOID="IT.DA.DATEST" Mandatory="No" OrderNumber="9"
                    Role="Synonym Qualifier"/>
                <ItemRef ItemOID="IT.DA.DACAT" Mandatory="No" OrderNumber="10"
                    Role="Grouping Qualifier"/>
                <ItemRef ItemOID="IT.DA.DASCAT" Mandatory="No" OrderNumber="11"
                    Role="Grouping Qualifier"/>
                <ItemRef ItemOID="IT.DA.DAORRES" Mandatory="No" OrderNumber="12"
                    Role="Result Qualifier"/>
                <ItemRef ItemOID="IT.DA.DAORRESU" Mandatory="No" OrderNumber="13"
                    Role="Variable Qualifier"/>
                <ItemRef ItemOID="IT.DA.DASTRESC" Mandatory="No" OrderNumber="14"
                    Role="Result Qualifier"/>
                <ItemRef ItemOID="IT.DA.DASTRESN" Mandatory="No" OrderNumber="15"
                    Role="Result Qualifier"/>
                <ItemRef ItemOID="IT.DA.DASTRESU" Mandatory="No" OrderNumber="16"
                    Role="Variable Qualifier"/>
                <ItemRef ItemOID="IT.DA.DASTAT" Mandatory="No" OrderNumber="17"
                    Role="Record Qualifier"/>
                <ItemRef ItemOID="IT.DA.DAREASND" Mandatory="No" OrderNumber="18"
                    Role="Record Qualifier"/>
                <ItemRef ItemOID="IT.DA.VISITNUM" Mandatory="No" OrderNumber="19" Role="Timing"/>
                <ItemRef ItemOID="IT.DA.VISIT" Mandatory="No" OrderNumber="20" Role="Timing"/>
                <ItemRef ItemOID="IT.DA.VISITDY" Mandatory="No" OrderNumber="21" Role="Timing"/>
                <ItemRef ItemOID="IT.DA.DADTC" Mandatory="No" OrderNumber="22" Role="Timing"/>
                <ItemRef ItemOID="IT.DA.DADY" Mandatory="No" OrderNumber="23" Role="Timing"/>
                <def:Class Name="FINDINGS"/>
            </ItemGroupDef>
            <ItemGroupDef Domain="DD" Name="DD" OID="IGD.DD" Purpose="Tabulation" Repeating="No"
                def:Structure="One record per finding per subject">
                <Description>
                    <TranslatedText xml:lang="en">Death Details</TranslatedText>
                </Description>
                <ItemRef ItemOID="IT.DD.STUDYID" Mandatory="No" OrderNumber="1" Role="Identifier"/>
                <ItemRef ItemOID="IT.DD.DOMAIN" Mandatory="No" OrderNumber="2" Role="Identifier"/>
                <ItemRef ItemOID="IT.DD.USUBJID" Mandatory="No" OrderNumber="3" Role="Identifier"/>
                <ItemRef ItemOID="IT.DD.DDSEQ" Mandatory="No" OrderNumber="4" Role="Identifier"/>
                <ItemRef ItemOID="IT.DD.DDTESTCD" Mandatory="No" OrderNumber="5" Role="Topic"/>
                <ItemRef ItemOID="IT.DD.DDTEST" Mandatory="No" OrderNumber="6"
                    Role="Synonym Qualifier"/>
                <ItemRef ItemOID="IT.DD.DDORRES" Mandatory="No" OrderNumber="7"
                    Role="Result Qualifier"/>
                <ItemRef ItemOID="IT.DD.DDSTRESC" Mandatory="No" OrderNumber="8"
                    Role="Result Qualifier"/>
                <ItemRef ItemOID="IT.DD.DDRESCAT" Mandatory="No" OrderNumber="9"
                    Role="Variable Qualifier"/>
                <ItemRef ItemOID="IT.DD.DDEVAL" Mandatory="No" OrderNumber="10"
                    Role="Record Qualifier"/>
                <ItemRef ItemOID="IT.DD.DDDTC" Mandatory="No" OrderNumber="11" Role="Timing"/>
                <ItemRef ItemOID="IT.DD.DDDY" Mandatory="No" OrderNumber="12" Role="Timing"/>
                <def:Class Name="FINDINGS"/>
            </ItemGroupDef>
            <ItemGroupDef Domain="EG" Name="EG" OID="IGD.EG" Purpose="Tabulation" Repeating="No"
                def:Structure="One record per ECG observation per time point per visit per subject">
                <Description>
                    <TranslatedText xml:lang="en">ECG</TranslatedText>
                </Description>
                <ItemRef ItemOID="IT.EG.STUDYID" Mandatory="No" OrderNumber="1" Role="Identifier"/>
                <ItemRef ItemOID="IT.EG.DOMAIN" Mandatory="No" OrderNumber="2" Role="Identifier"/>
                <ItemRef ItemOID="IT.EG.USUBJID" Mandatory="No" OrderNumber="3" Role="Identifier"/>
                <ItemRef ItemOID="IT.EG.EGSEQ" Mandatory="No" OrderNumber="4" Role="Identifier"/>
                <ItemRef ItemOID="IT.EG.EGGRPID" Mandatory="No" OrderNumber="5" Role="Identifier"/>
                <ItemRef ItemOID="IT.EG.EGREFID" Mandatory="No" OrderNumber="6" Role="Identifier"/>
                <ItemRef ItemOID="IT.EG.EGSPID" Mandatory="No" OrderNumber="7" Role="Identifier"/>
                <ItemRef ItemOID="IT.EG.EGTESTCD" Mandatory="No" OrderNumber="8" Role="Topic"/>
                <ItemRef ItemOID="IT.EG.EGTEST" Mandatory="No" OrderNumber="9"
                    Role="Synonym Qualifier"/>
                <ItemRef ItemOID="IT.EG.EGCAT" Mandatory="No" OrderNumber="10"
                    Role="Grouping Qualifier"/>
                <ItemRef ItemOID="IT.EG.EGSCAT" Mandatory="No" OrderNumber="11"
                    Role="Grouping Qualifier"/>
                <ItemRef ItemOID="IT.EG.EGPOS" Mandatory="No" OrderNumber="12"
                    Role="Record Qualifier"/>
                <ItemRef ItemOID="IT.EG.EGORRES" Mandatory="No" OrderNumber="13"
                    Role="Result Qualifier"/>
                <ItemRef ItemOID="IT.EG.EGORRESU" Mandatory="No" OrderNumber="14"
                    Role="Variable Qualifier"/>
                <ItemRef ItemOID="IT.EG.EGSTRESC" Mandatory="No" OrderNumber="15"
                    Role="Result Qualifier"/>
                <ItemRef ItemOID="IT.EG.EGSTRESN" Mandatory="No" OrderNumber="16"
                    Role="Result Qualifier"/>
                <ItemRef ItemOID="IT.EG.EGSTRESU" Mandatory="No" OrderNumber="17"
                    Role="Variable Qualifier"/>
                <ItemRef ItemOID="IT.EG.EGSTAT" Mandatory="No" OrderNumber="18"
                    Role="Record Qualifier"/>
                <ItemRef ItemOID="IT.EG.EGREASND" Mandatory="No" OrderNumber="19"
                    Role="Record Qualifier"/>
                <ItemRef ItemOID="IT.EG.EGXFN" Mandatory="No" OrderNumber="20"
                    Role="Record Qualifier"/>
                <ItemRef ItemOID="IT.EG.EGNAM" Mandatory="No" OrderNumber="21"
                    Role="Record Qualifier"/>
                <ItemRef ItemOID="IT.EG.EGLEAD" Mandatory="No" OrderNumber="22"
                    Role="Record Qualifier"/>
                <ItemRef ItemOID="IT.EG.EGMETHOD" Mandatory="No" OrderNumber="23"
                    Role="Record Qualifier"/>
                <ItemRef ItemOID="IT.EG.EGBLFL" Mandatory="No" OrderNumber="24"
                    Role="Record Qualifier"/>
                <ItemRef ItemOID="IT.EG.EGDRVFL" Mandatory="No" OrderNumber="25"
                    Role="Record Qualifier"/>
                <ItemRef ItemOID="IT.EG.EGEVAL" Mandatory="No" OrderNumber="26"
                    Role="Record Qualifier"/>
                <ItemRef ItemOID="IT.EG.VISITNUM" Mandatory="No" OrderNumber="27" Role="Timing"/>
                <ItemRef ItemOID="IT.EG.VISIT" Mandatory="No" OrderNumber="28" Role="Timing"/>
                <ItemRef ItemOID="IT.EG.VISITDY" Mandatory="No" OrderNumber="29" Role="Timing"/>
                <ItemRef ItemOID="IT.EG.EGDTC" Mandatory="No" OrderNumber="30" Role="Timing"/>
                <ItemRef ItemOID="IT.EG.EGDY" Mandatory="No" OrderNumber="31" Role="Timing"/>
                <ItemRef ItemOID="IT.EG.EGTPT" Mandatory="No" OrderNumber="32" Role="Timing"/>
                <ItemRef ItemOID="IT.EG.EGTPTNUM" Mandatory="No" OrderNumber="33" Role="Timing"/>
                <ItemRef ItemOID="IT.EG.EGELTM" Mandatory="No" OrderNumber="34" Role="Timing"/>
                <ItemRef ItemOID="IT.EG.EGTPTREF" Mandatory="No" OrderNumber="35" Role="Timing"/>
                <ItemRef ItemOID="IT.EG.EGRFTDTC" Mandatory="No" OrderNumber="36" Role="Timing"/>
                <def:Class Name="FINDINGS"/>
            </ItemGroupDef>
            <ItemGroupDef Domain="IE" Name="IE" OID="IGD.IE" Purpose="Tabulation" Repeating="No"
                def:Structure="One record per inclusion/exclusion criterion not met per subject">
                <Description>
                    <TranslatedText xml:lang="en">Inclusion/Exclusion Criteria Not
                        Met</TranslatedText>
                </Description>
                <ItemRef ItemOID="IT.IE.STUDYID" Mandatory="No" OrderNumber="1" Role="Identifier"/>
                <ItemRef ItemOID="IT.IE.DOMAIN" Mandatory="No" OrderNumber="2" Role="Identifier"/>
                <ItemRef ItemOID="IT.IE.USUBJID" Mandatory="No" OrderNumber="3" Role="Identifier"/>
                <ItemRef ItemOID="IT.IE.IESEQ" Mandatory="No" OrderNumber="4" Role="Identifier"/>
                <ItemRef ItemOID="IT.IE.IESPID" Mandatory="No" OrderNumber="5" Role="Identifier"/>
                <ItemRef ItemOID="IT.IE.IETESTCD" Mandatory="No" OrderNumber="6" Role="Topic"/>
                <ItemRef ItemOID="IT.IE.IETEST" Mandatory="No" OrderNumber="7"
                    Role="Synonym Qualifier"/>
                <ItemRef ItemOID="IT.IE.IECAT" Mandatory="No" OrderNumber="8"
                    Role="Grouping Qualifier"/>
                <ItemRef ItemOID="IT.IE.IESCAT" Mandatory="No" OrderNumber="9"
                    Role="Grouping Qualifier"/>
                <ItemRef ItemOID="IT.IE.IEORRES" Mandatory="No" OrderNumber="10"
                    Role="Result Qualifier"/>
                <ItemRef ItemOID="IT.IE.IESTRESC" Mandatory="No" OrderNumber="11"
                    Role="Result Qualifier"/>
                <ItemRef ItemOID="IT.IE.VISITNUM" Mandatory="No" OrderNumber="12" Role="Timing"/>
                <ItemRef ItemOID="IT.IE.VISIT" Mandatory="No" OrderNumber="13" Role="Timing"/>
                <ItemRef ItemOID="IT.IE.VISITDY" Mandatory="No" OrderNumber="14" Role="Timing"/>
                <ItemRef ItemOID="IT.IE.IEDTC" Mandatory="No" OrderNumber="15" Role="Timing"/>
                <ItemRef ItemOID="IT.IE.IEDY" Mandatory="No" OrderNumber="16" Role="Timing"/>
                <def:Class Name="FINDINGS"/>
            </ItemGroupDef>
            <ItemGroupDef Domain="IS" Name="IS" OID="IGD.IS" Purpose="Tabulation" Repeating="No"
                def:Structure="One record per test per visit per subject">
                <Description>
                    <TranslatedText xml:lang="en">Immunogenicity Specimen
                        Assessments</TranslatedText>
                </Description>
                <ItemRef ItemOID="IT.IS.STUDYID" Mandatory="No" OrderNumber="1" Role="Identifier"/>
                <ItemRef ItemOID="IT.IS.DOMAIN" Mandatory="No" OrderNumber="2" Role="Identifier"/>
                <ItemRef ItemOID="IT.IS.USUBJID" Mandatory="No" OrderNumber="3" Role="Identifier"/>
                <ItemRef ItemOID="IT.IS.ISSEQ" Mandatory="No" OrderNumber="4" Role="Identifier"/>
                <ItemRef ItemOID="IT.IS.ISGRPID" Mandatory="No" OrderNumber="5" Role="Identifier"/>
                <ItemRef ItemOID="IT.IS.ISREFID" Mandatory="No" OrderNumber="6" Role="Identifier"/>
                <ItemRef ItemOID="IT.IS.ISSPID" Mandatory="No" OrderNumber="7" Role="Identifier"/>
                <ItemRef ItemOID="IT.IS.ISTESTCD" Mandatory="No" OrderNumber="8" Role="Identifier"/>
                <ItemRef ItemOID="IT.IS.ISTEST" Mandatory="No" OrderNumber="9" Role="Topic"/>
                <ItemRef ItemOID="IT.IS.ISCAT" Mandatory="No" OrderNumber="10"
                    Role="Synonym Qualifier"/>
                <ItemRef ItemOID="IT.IS.ISSCAT" Mandatory="No" OrderNumber="11"
                    Role="Grouping Qualifier"/>
                <ItemRef ItemOID="IT.IS.ISORRES" Mandatory="No" OrderNumber="12"
                    Role="Result Qualifier"/>
                <ItemRef ItemOID="IT.IS.ISORRESU" Mandatory="No" OrderNumber="13"
                    Role="Variable Qualifier"/>
                <ItemRef ItemOID="IT.IS.ISSTRESC" Mandatory="No" OrderNumber="14"
                    Role="Result Qualifier"/>
                <ItemRef ItemOID="IT.IS.ISSTRESN" Mandatory="No" OrderNumber="15"
                    Role="Result Qualifier"/>
                <ItemRef ItemOID="IT.IS.ISSTRESU" Mandatory="No" OrderNumber="16"
                    Role="Variable Qualifier"/>
                <ItemRef ItemOID="IT.IS.ISSTAT" Mandatory="No" OrderNumber="17"
                    Role="Record Qualifier"/>
                <ItemRef ItemOID="IT.IS.ISREASND" Mandatory="No" OrderNumber="18"
                    Role="Record Qualifier"/>
                <ItemRef ItemOID="IT.IS.ISNAM" Mandatory="No" OrderNumber="19"
                    Role="Record Qualifier"/>
                <ItemRef ItemOID="IT.IS.ISSPEC" Mandatory="No" OrderNumber="20"
                    Role="Record Qualifier"/>
                <ItemRef ItemOID="IT.IS.ISMETHOD" Mandatory="No" OrderNumber="21"
                    Role="Record Qualifier"/>
                <ItemRef ItemOID="IT.IS.ISBLFL" Mandatory="No" OrderNumber="22"
                    Role="Record Qualifier"/>
                <ItemRef ItemOID="IT.IS.ISLLOQ" Mandatory="No" OrderNumber="23"
                    Role="Variable Qualifier"/>
                <ItemRef ItemOID="IT.IS.VISITNUM" Mandatory="No" OrderNumber="24" Role="Timing"/>
                <ItemRef ItemOID="IT.IS.VISIT" Mandatory="No" OrderNumber="25" Role="Timing"/>
                <ItemRef ItemOID="IT.IS.VISITDY" Mandatory="No" OrderNumber="26" Role="Timing"/>
                <ItemRef ItemOID="IT.IS.ISDTC" Mandatory="No" OrderNumber="27" Role="Timing"/>
                <ItemRef ItemOID="IT.IS.ISDY" Mandatory="No" OrderNumber="28" Role="Timing"/>
                <def:Class Name="FINDINGS"/>
            </ItemGroupDef>
            <ItemGroupDef Domain="LB" Name="LB" OID="IGD.LB" Purpose="Tabulation" Repeating="No"
                def:Structure="One record per lab test per time point per visit per subject">
                <Description>
                    <TranslatedText xml:lang="en">Labs</TranslatedText>
                </Description>
                <ItemRef ItemOID="IT.LB.STUDYID" Mandatory="No" OrderNumber="1" Role="Identifier"/>
                <ItemRef ItemOID="IT.LB.DOMAIN" Mandatory="No" OrderNumber="2" Role="Identifier"/>
                <ItemRef ItemOID="IT.LB.USUBJID" Mandatory="No" OrderNumber="3" Role="Identifier"/>
                <ItemRef ItemOID="IT.LB.LBSEQ" Mandatory="No" OrderNumber="4" Role="Identifier"/>
                <ItemRef ItemOID="IT.LB.LBGRPID" Mandatory="No" OrderNumber="5" Role="Identifier"/>
                <ItemRef ItemOID="IT.LB.LBREFID" Mandatory="No" OrderNumber="6" Role="Identifier"/>
                <ItemRef ItemOID="IT.LB.LBSPID" Mandatory="No" OrderNumber="7" Role="Identifier"/>
                <ItemRef ItemOID="IT.LB.LBTESTCD" Mandatory="No" OrderNumber="8" Role="Topic"/>
                <ItemRef ItemOID="IT.LB.LBTEST" Mandatory="No" OrderNumber="9"
                    Role="Synonym Qualifier"/>
                <ItemRef ItemOID="IT.LB.LBCAT" Mandatory="No" OrderNumber="10"
                    Role="Grouping Qualifier"/>
                <ItemRef ItemOID="IT.LB.LBSCAT" Mandatory="No" OrderNumber="11"
                    Role="Grouping Qualifier"/>
                <ItemRef ItemOID="IT.LB.LBORRES" Mandatory="No" OrderNumber="12"
                    Role="Result Qualifier"/>
                <ItemRef ItemOID="IT.LB.LBORRESU" Mandatory="No" OrderNumber="13"
                    Role="Variable Qualifier"/>
                <ItemRef ItemOID="IT.LB.LBORNRLO" Mandatory="No" OrderNumber="14"
                    Role="Variable Qualifier"/>
                <ItemRef ItemOID="IT.LB.LBORNRHI" Mandatory="No" OrderNumber="15"
                    Role="Variable Qualifier"/>
                <ItemRef ItemOID="IT.LB.LBSTRESC" Mandatory="No" OrderNumber="16"
                    Role="Result Qualifier"/>
                <ItemRef ItemOID="IT.LB.LBSTRESN" Mandatory="No" OrderNumber="17"
                    Role="Result Qualifier"/>
                <ItemRef ItemOID="IT.LB.LBSTRESU" Mandatory="No" OrderNumber="18"
                    Role="Variable Qualifier"/>
                <ItemRef ItemOID="IT.LB.LBSTNRLO" Mandatory="No" OrderNumber="19"
                    Role="Variable Qualifier"/>
                <ItemRef ItemOID="IT.LB.LBSTNRHI" Mandatory="No" OrderNumber="20"
                    Role="Variable Qualifier"/>
                <ItemRef ItemOID="IT.LB.LBSTNRC" Mandatory="No" OrderNumber="21"
                    Role="Variable Qualifier"/>
                <ItemRef ItemOID="IT.LB.LBNRIND" Mandatory="No" OrderNumber="22"
                    Role="Variable Qualifier"/>
                <ItemRef ItemOID="IT.LB.LBSTAT" Mandatory="No" OrderNumber="23"
                    Role="Record Qualifier"/>
                <ItemRef ItemOID="IT.LB.LBREASND" Mandatory="No" OrderNumber="24"
                    Role="Record Qualifier"/>
                <ItemRef ItemOID="IT.LB.LBNAM" Mandatory="No" OrderNumber="25"
                    Role="Record Qualifier"/>
                <ItemRef ItemOID="IT.LB.LBLOINC" Mandatory="No" OrderNumber="26"
                    Role="Synonym Qualifier"/>
                <ItemRef ItemOID="IT.LB.LBSPEC" Mandatory="No" OrderNumber="27"
                    Role="Record Qualifier"/>
                <ItemRef ItemOID="IT.LB.LBSPCCND" Mandatory="No" OrderNumber="28"
                    Role="Record Qualifier"/>
                <ItemRef ItemOID="IT.LB.LBMETHOD" Mandatory="No" OrderNumber="29"
                    Role="Record Qualifier"/>
                <ItemRef ItemOID="IT.LB.LBBLFL" Mandatory="No" OrderNumber="30"
                    Role="Record Qualifier"/>
                <ItemRef ItemOID="IT.LB.LBFAST" Mandatory="No" OrderNumber="31"
                    Role="Record Qualifier"/>
                <ItemRef ItemOID="IT.LB.LBDRVFL" Mandatory="No" OrderNumber="32"
                    Role="Record Qualifier"/>
                <ItemRef ItemOID="IT.LB.LBTOX" Mandatory="No" OrderNumber="33"
                    Role="Variable Qualifier"/>
                <ItemRef ItemOID="IT.LB.LBTOXGR" Mandatory="No" OrderNumber="34"
                    Role="Variable Qualifier"/>
                <ItemRef ItemOID="IT.LB.VISITNUM" Mandatory="No" OrderNumber="35" Role="Timing"/>
                <ItemRef ItemOID="IT.LB.VISIT" Mandatory="No" OrderNumber="36" Role="Timing"/>
                <ItemRef ItemOID="IT.LB.VISITDY" Mandatory="No" OrderNumber="37" Role="Timing"/>
                <ItemRef ItemOID="IT.LB.LBDTC" Mandatory="No" OrderNumber="38" Role="Timing"/>
                <ItemRef ItemOID="IT.LB.LBENDTC" Mandatory="No" OrderNumber="39" Role="Timing"/>
                <ItemRef ItemOID="IT.LB.LBDY" Mandatory="No" OrderNumber="40" Role="Timing"/>
                <ItemRef ItemOID="IT.LB.LBTPT" Mandatory="No" OrderNumber="41" Role="Timing"/>
                <ItemRef ItemOID="IT.LB.LBTPTNUM" Mandatory="No" OrderNumber="42" Role="Timing"/>
                <ItemRef ItemOID="IT.LB.LBELTM" Mandatory="No" OrderNumber="43" Role="Timing"/>
                <ItemRef ItemOID="IT.LB.LBTPTREF" Mandatory="No" OrderNumber="44" Role="Timing"/>
                <ItemRef ItemOID="IT.LB.LBRFTDTC" Mandatory="No" OrderNumber="45" Role="Timing"/>
                <def:Class Name="FINDINGS"/>
            </ItemGroupDef>
            <ItemGroupDef Domain="MB" Name="MB" OID="IGD.MB" Purpose="Tabulation" Repeating="No"
                def:Structure="One record per microbiology specimen finding per time point per visit per subject">
                <Description>
                    <TranslatedText xml:lang="en">Microbiology Specimen</TranslatedText>
                </Description>
                <ItemRef ItemOID="IT.MB.STUDYID" Mandatory="No" OrderNumber="1" Role="Identifier"/>
                <ItemRef ItemOID="IT.MB.DOMAIN" Mandatory="No" OrderNumber="2" Role="Identifier"/>
                <ItemRef ItemOID="IT.MB.USUBJID" Mandatory="No" OrderNumber="3" Role="Identifier"/>
                <ItemRef ItemOID="IT.MB.MBSEQ" Mandatory="No" OrderNumber="4" Role="Identifier"/>
                <ItemRef ItemOID="IT.MB.MBGRPID" Mandatory="No" OrderNumber="5" Role="Identifier"/>
                <ItemRef ItemOID="IT.MB.MBREFID" Mandatory="No" OrderNumber="6" Role="Identifier"/>
                <ItemRef ItemOID="IT.MB.MBSPID" Mandatory="No" OrderNumber="7" Role="Identifier"/>
                <ItemRef ItemOID="IT.MB.MBTESTCD" Mandatory="No" OrderNumber="8" Role="Topic"/>
                <ItemRef ItemOID="IT.MB.MBTEST" Mandatory="No" OrderNumber="9"
                    Role="Synonym Qualifier"/>
                <ItemRef ItemOID="IT.MB.MBCAT" Mandatory="No" OrderNumber="10"
                    Role="Grouping Qualifier"/>
                <ItemRef ItemOID="IT.MB.MBSCAT" Mandatory="No" OrderNumber="11"
                    Role="Grouping Qualifier"/>
                <ItemRef ItemOID="IT.MB.MBORRES" Mandatory="No" OrderNumber="12"
                    Role="Result Qualifier"/>
                <ItemRef ItemOID="IT.MB.MBORRESU" Mandatory="No" OrderNumber="13"
                    Role="Variable Qualifier"/>
                <ItemRef ItemOID="IT.MB.MBSTRESC" Mandatory="No" OrderNumber="14"
                    Role="Result Qualifier"/>
                <ItemRef ItemOID="IT.MB.MBSTRESN" Mandatory="No" OrderNumber="15"
                    Role="Result Qualifier"/>
                <ItemRef ItemOID="IT.MB.MBSTRESU" Mandatory="No" OrderNumber="16"
                    Role="Variable Qualifier"/>
                <ItemRef ItemOID="IT.MB.MBRESCAT" Mandatory="No" OrderNumber="17"
                    Role="Variable Qualifier"/>
                <ItemRef ItemOID="IT.MB.MBSTAT" Mandatory="No" OrderNumber="18"
                    Role="Record Qualifier"/>
                <ItemRef ItemOID="IT.MB.MBREASND" Mandatory="No" OrderNumber="19"
                    Role="Record Qualifier"/>
                <ItemRef ItemOID="IT.MB.MBNAM" Mandatory="No" OrderNumber="20"
                    Role="Record Qualifier"/>
                <ItemRef ItemOID="IT.MB.MBLOINC" Mandatory="No" OrderNumber="21"
                    Role="Synonym Qualifier"/>
                <ItemRef ItemOID="IT.MB.MBSPEC" Mandatory="No" OrderNumber="22"
                    Role="Record Qualifier"/>
                <ItemRef ItemOID="IT.MB.MBSPCCND" Mandatory="No" OrderNumber="23"
                    Role="Record Qualifier"/>
                <ItemRef ItemOID="IT.MB.MBLOC" Mandatory="No" OrderNumber="24"
                    Role="Record Qualifier"/>
                <ItemRef ItemOID="IT.MB.MBMETHOD" Mandatory="No" OrderNumber="25"
                    Role="Record Qualifier"/>
                <ItemRef ItemOID="IT.MB.MBBLFL" Mandatory="No" OrderNumber="26"
                    Role="Record Qualifier"/>
                <ItemRef ItemOID="IT.MB.MBDRVFL" Mandatory="No" OrderNumber="27"
                    Role="Record Qualifier"/>
                <ItemRef ItemOID="IT.MB.VISITNUM" Mandatory="No" OrderNumber="28" Role="Timing"/>
                <ItemRef ItemOID="IT.MB.VISIT" Mandatory="No" OrderNumber="29" Role="Timing"/>
                <ItemRef ItemOID="IT.MB.VISITDY" Mandatory="No" OrderNumber="30" Role="Timing"/>
                <ItemRef ItemOID="IT.MB.MBDTC" Mandatory="No" OrderNumber="31" Role="Timing"/>
                <ItemRef ItemOID="IT.MB.MBDY" Mandatory="No" OrderNumber="32" Role="Timing"/>
                <ItemRef ItemOID="IT.MB.MBTPT" Mandatory="No" OrderNumber="33" Role="Timing"/>
                <ItemRef ItemOID="IT.MB.MBTPTNUM" Mandatory="No" OrderNumber="34" Role="Timing"/>
                <ItemRef ItemOID="IT.MB.MBELTM" Mandatory="No" OrderNumber="35" Role="Timing"/>
                <ItemRef ItemOID="IT.MB.MBTPTREF" Mandatory="No" OrderNumber="36" Role="Timing"/>
                <ItemRef ItemOID="IT.MB.MBRFTDTC" Mandatory="No" OrderNumber="37" Role="Timing"/>
                <def:Class Name="FINDINGS"/>
            </ItemGroupDef>
            <ItemGroupDef Domain="MS" Name="MS" OID="IGD.MS" Purpose="Tabulation" Repeating="No"
                def:Structure="One record per microbiology susceptibility test (or other organism-related finding) per organism found in MB">
                <Description>
                    <TranslatedText xml:lang="en">Microbiology Susceptibility Test</TranslatedText>
                </Description>
                <ItemRef ItemOID="IT.MS.STUDYID" Mandatory="No" OrderNumber="1" Role="Identifier"/>
                <ItemRef ItemOID="IT.MS.DOMAIN" Mandatory="No" OrderNumber="2" Role="Identifier"/>
                <ItemRef ItemOID="IT.MS.USUBJID" Mandatory="No" OrderNumber="3" Role="Identifier"/>
                <ItemRef ItemOID="IT.MS.MSSEQ" Mandatory="No" OrderNumber="4" Role="Identifier"/>
                <ItemRef ItemOID="IT.MS.MSGRPID" Mandatory="No" OrderNumber="5" Role="Identifier"/>
                <ItemRef ItemOID="IT.MS.MSREFID" Mandatory="No" OrderNumber="6" Role="Identifier"/>
                <ItemRef ItemOID="IT.MS.MSSPID" Mandatory="No" OrderNumber="7" Role="Identifier"/>
                <ItemRef ItemOID="IT.MS.MSTESTCD" Mandatory="No" OrderNumber="8" Role="Topic"/>
                <ItemRef ItemOID="IT.MS.MSTEST" Mandatory="No" OrderNumber="9"
                    Role="Synonym Qualifier"/>
                <ItemRef ItemOID="IT.MS.MSCAT" Mandatory="No" OrderNumber="10"
                    Role="Grouping Qualifier"/>
                <ItemRef ItemOID="IT.MS.MSSCAT" Mandatory="No" OrderNumber="11"
                    Role="Grouping Qualifier"/>
                <ItemRef ItemOID="IT.MS.MSORRES" Mandatory="No" OrderNumber="12"
                    Role="Result Qualifier"/>
                <ItemRef ItemOID="IT.MS.MSORRESU" Mandatory="No" OrderNumber="13"
                    Role="Variable Qualifier"/>
                <ItemRef ItemOID="IT.MS.MSSTRESC" Mandatory="No" OrderNumber="14"
                    Role="Result Qualifier"/>
                <ItemRef ItemOID="IT.MS.MSSTRESN" Mandatory="No" OrderNumber="15"
                    Role="Result Qualifier"/>
                <ItemRef ItemOID="IT.MS.MSSTRESU" Mandatory="No" OrderNumber="16"
                    Role="Variable Qualifier"/>
                <ItemRef ItemOID="IT.MS.MSRESCAT" Mandatory="No" OrderNumber="17"
                    Role="Variable Qualifier"/>
                <ItemRef ItemOID="IT.MS.MSSTAT" Mandatory="No" OrderNumber="18"
                    Role="Record Qualifier"/>
                <ItemRef ItemOID="IT.MS.MSREASND" Mandatory="No" OrderNumber="19"
                    Role="Record Qualifier"/>
                <ItemRef ItemOID="IT.MS.MSNAM" Mandatory="No" OrderNumber="20"
                    Role="Record Qualifier"/>
                <ItemRef ItemOID="IT.MS.MSLOINC" Mandatory="No" OrderNumber="21"
                    Role="Synonym Qualifier"/>
                <ItemRef ItemOID="IT.MS.MSMETHOD" Mandatory="No" OrderNumber="22"
                    Role="Record Qualifier"/>
                <ItemRef ItemOID="IT.MS.MSBLFL" Mandatory="No" OrderNumber="23"
                    Role="Record Qualifier"/>
                <ItemRef ItemOID="IT.MS.MSDRVFL" Mandatory="No" OrderNumber="24"
                    Role="Record Qualifier"/>
                <ItemRef ItemOID="IT.MS.VISITNUM" Mandatory="No" OrderNumber="25" Role="Timing"/>
                <ItemRef ItemOID="IT.MS.VISIT" Mandatory="No" OrderNumber="26" Role="Timing"/>
                <ItemRef ItemOID="IT.MS.VISITDY" Mandatory="No" OrderNumber="27" Role="Timing"/>
                <ItemRef ItemOID="IT.MS.MSDTC" Mandatory="No" OrderNumber="28" Role="Timing"/>
                <ItemRef ItemOID="IT.MS.MSDY" Mandatory="No" OrderNumber="29" Role="Timing"/>
                <ItemRef ItemOID="IT.MS.MSTPT" Mandatory="No" OrderNumber="30" Role="Timing"/>
                <ItemRef ItemOID="IT.MS.MSTPTNUM" Mandatory="No" OrderNumber="31" Role="Timing"/>
                <ItemRef ItemOID="IT.MS.MSELTM" Mandatory="No" OrderNumber="32" Role="Timing"/>
                <ItemRef ItemOID="IT.MS.MSTPTREF" Mandatory="No" OrderNumber="33" Role="Timing"/>
                <def:Class Name="FINDINGS"/>
            </ItemGroupDef>
            <ItemGroupDef Domain="MI" Name="MI" OID="IGD.MI" Purpose="Tabulation" Repeating="No"
                def:Structure="One record per finding per specimen per subject">
                <Description>
                    <TranslatedText xml:lang="en">Microscopic Findings</TranslatedText>
                </Description>
                <ItemRef ItemOID="IT.MI.STUDYID" Mandatory="No" OrderNumber="1" Role="Identifier"/>
                <ItemRef ItemOID="IT.MI.DOMAIN" Mandatory="No" OrderNumber="2" Role="Identifier"/>
                <ItemRef ItemOID="IT.MI.USUBJID" Mandatory="No" OrderNumber="3" Role="Identifier"/>
                <ItemRef ItemOID="IT.MI.MISEQ" Mandatory="No" OrderNumber="4" Role="Identifier"/>
                <ItemRef ItemOID="IT.MI.MIGRPID" Mandatory="No" OrderNumber="5" Role="Identifier"/>
                <ItemRef ItemOID="IT.MI.MIREFID" Mandatory="No" OrderNumber="6" Role="Identifier"/>
                <ItemRef ItemOID="IT.MI.MISPID" Mandatory="No" OrderNumber="7" Role="Identifier"/>
                <ItemRef ItemOID="IT.MI.MITESTCD" Mandatory="No" OrderNumber="8" Role="Topic"/>
                <ItemRef ItemOID="IT.MI.MITEST" Mandatory="No" OrderNumber="9"
                    Role="Synonym Qualifier"/>
                <ItemRef ItemOID="IT.MI.MITSTDTL" Mandatory="No" OrderNumber="10"
                    Role="Record Qualifier"/>
                <ItemRef ItemOID="IT.MI.MICAT" Mandatory="No" OrderNumber="11"
                    Role="Grouping Qualifier"/>
                <ItemRef ItemOID="IT.MI.MISCAT" Mandatory="No" OrderNumber="12"
                    Role="Grouping Qualifier"/>
                <ItemRef ItemOID="IT.MI.MIORRES" Mandatory="No" OrderNumber="13"
                    Role="Result Qualifier"/>
                <ItemRef ItemOID="IT.MI.MIORRESU" Mandatory="No" OrderNumber="14"
                    Role="Variable Qualifier"/>
                <ItemRef ItemOID="IT.MI.MISTRESC" Mandatory="No" OrderNumber="15"
                    Role="Result Qualifier"/>
                <ItemRef ItemOID="IT.MI.MISTRESN" Mandatory="No" OrderNumber="16"
                    Role="Result Qualifier"/>
                <ItemRef ItemOID="IT.MI.MISTRESU" Mandatory="No" OrderNumber="17"
                    Role="Variable Qualifier"/>
                <ItemRef ItemOID="IT.MI.MIRESCAT" Mandatory="No" OrderNumber="18"
                    Role="Result Qualifier"/>
                <ItemRef ItemOID="IT.MI.MISTAT" Mandatory="No" OrderNumber="19"
                    Role="Record Qualifier"/>
                <ItemRef ItemOID="IT.MI.MIREASND" Mandatory="No" OrderNumber="20"
                    Role="Record Qualifier"/>
                <ItemRef ItemOID="IT.MI.MINAM" Mandatory="No" OrderNumber="21"
                    Role="Record Qualifier"/>
                <ItemRef ItemOID="IT.MI.MISPEC" Mandatory="No" OrderNumber="22"
                    Role="Record Qualifier"/>
                <ItemRef ItemOID="IT.MI.MISPCCND" Mandatory="No" OrderNumber="23"
                    Role="Variable Qualifier"/>
                <ItemRef ItemOID="IT.MI.MILOC" Mandatory="No" OrderNumber="24"
                    Role="Record Qualifier"/>
                <ItemRef ItemOID="IT.MI.MILAT" Mandatory="No" OrderNumber="25"
                    Role="Variable Qualifier"/>
                <ItemRef ItemOID="IT.MI.MIDIR" Mandatory="No" OrderNumber="26"
                    Role="Variable Qualifier"/>
                <ItemRef ItemOID="IT.MI.MIMETHOD" Mandatory="No" OrderNumber="27"
                    Role="Record Qualifier"/>
                <ItemRef ItemOID="IT.MI.MIBLFL" Mandatory="No" OrderNumber="28"
                    Role="Record Qualifier"/>
                <ItemRef ItemOID="IT.MI.MIEVAL" Mandatory="No" OrderNumber="29"
                    Role="Record Qualifier"/>
                <ItemRef ItemOID="IT.MI.VISITNUM" Mandatory="No" OrderNumber="30" Role="Timing"/>
                <ItemRef ItemOID="IT.MI.VISIT" Mandatory="No" OrderNumber="31" Role="Timing"/>
                <ItemRef ItemOID="IT.MI.VISITDY" Mandatory="No" OrderNumber="32" Role="Timing"/>
                <ItemRef ItemOID="IT.MI.MIDTC" Mandatory="No" OrderNumber="33" Role="Timing"/>
                <ItemRef ItemOID="IT.MI.MIDY" Mandatory="No" OrderNumber="34" Role="Timing"/>
                <def:Class Name="FINDINGS"/>
            </ItemGroupDef>
            <ItemGroupDef Domain="MO" Name="MO" OID="IGD.MO" Purpose="Tabulation" Repeating="No"
                def:Structure="One record per Morphology finding per location per time point per visit per subject">
                <Description>
                    <TranslatedText xml:lang="en">Morphology</TranslatedText>
                </Description>
                <ItemRef ItemOID="IT.MO.STUDYID" Mandatory="No" OrderNumber="1" Role="Identifier"/>
                <ItemRef ItemOID="IT.MO.DOMAIN" Mandatory="No" OrderNumber="2" Role="Identifier"/>
                <ItemRef ItemOID="IT.MO.USUBJID" Mandatory="No" OrderNumber="3" Role="Identifier"/>
                <ItemRef ItemOID="IT.MO.MOSEQ" Mandatory="No" OrderNumber="4" Role="Identifier"/>
                <ItemRef ItemOID="IT.MO.MOGRPID" Mandatory="No" OrderNumber="5" Role="Identifier"/>
                <ItemRef ItemOID="IT.MO.MOREFID" Mandatory="No" OrderNumber="6" Role="Identifier"/>
                <ItemRef ItemOID="IT.MO.MOSPID" Mandatory="No" OrderNumber="7" Role="Identifier"/>
                <ItemRef ItemOID="IT.MO.MOLNKID" Mandatory="No" OrderNumber="8" Role="Identifier"/>
                <ItemRef ItemOID="IT.MO.MOTESTCD" Mandatory="No" OrderNumber="9" Role="Topic"/>
                <ItemRef ItemOID="IT.MO.MOTEST" Mandatory="No" OrderNumber="10"
                    Role="Synonym Qualifier"/>
                <ItemRef ItemOID="IT.MO.MOCAT" Mandatory="No" OrderNumber="11"
                    Role="Grouping Qualifier"/>
                <ItemRef ItemOID="IT.MO.MOSCAT" Mandatory="No" OrderNumber="12"
                    Role="Grouping Qualifier"/>
                <ItemRef ItemOID="IT.MO.MOPOS" Mandatory="No" OrderNumber="13"
                    Role="Record Qualifier"/>
                <ItemRef ItemOID="IT.MO.MOORRES" Mandatory="No" OrderNumber="14"
                    Role="Result Qualifier"/>
                <ItemRef ItemOID="IT.MO.MOORRESU" Mandatory="No" OrderNumber="15"
                    Role="Variable Qualifier"/>
                <ItemRef ItemOID="IT.MO.MOSTRESC" Mandatory="No" OrderNumber="16"
                    Role="Result Qualifier"/>
                <ItemRef ItemOID="IT.MO.MOSTRESN" Mandatory="No" OrderNumber="17"
                    Role="Result Qualifier"/>
                <ItemRef ItemOID="IT.MO.MOSTRESU" Mandatory="No" OrderNumber="18"
                    Role="Variable Qualifier"/>
                <ItemRef ItemOID="IT.MO.MOSTAT" Mandatory="No" OrderNumber="19"
                    Role="Record Qualifier"/>
                <ItemRef ItemOID="IT.MO.MOREASND" Mandatory="No" OrderNumber="20"
                    Role="Record Qualifier"/>
                <ItemRef ItemOID="IT.MO.MOXFN" Mandatory="No" OrderNumber="21"
                    Role="Record Qualifier"/>
                <ItemRef ItemOID="IT.MO.MONAM" Mandatory="No" OrderNumber="22"
                    Role="Record Qualifier"/>
                <ItemRef ItemOID="IT.MO.MOLOC" Mandatory="No" OrderNumber="23"
                    Role="Record Qualifier"/>
                <ItemRef ItemOID="IT.MO.MOLAT" Mandatory="No" OrderNumber="24"
                    Role="Variable Qualifier"/>
                <ItemRef ItemOID="IT.MO.MODIR" Mandatory="No" OrderNumber="25"
                    Role="Variable Qualifier"/>
                <ItemRef ItemOID="IT.MO.MOPORTOT" Mandatory="No" OrderNumber="26"
                    Role="Variable Qualifier"/>
                <ItemRef ItemOID="IT.MO.MOMETHOD" Mandatory="No" OrderNumber="27"
                    Role="Record Qualifier"/>
                <ItemRef ItemOID="IT.MO.MOANMETH" Mandatory="No" OrderNumber="28"
                    Role="Record Qualifier"/>
                <ItemRef ItemOID="IT.MO.MOBLFL" Mandatory="No" OrderNumber="29"
                    Role="Record Qualifier"/>
                <ItemRef ItemOID="IT.MO.MODRVFL" Mandatory="No" OrderNumber="30"
                    Role="Record Qualifier"/>
                <ItemRef ItemOID="IT.MO.MOEVAL" Mandatory="No" OrderNumber="31"
                    Role="Record Qualifier"/>
                <ItemRef ItemOID="IT.MO.VISITNUM" Mandatory="No" OrderNumber="32" Role="Timing"/>
                <ItemRef ItemOID="IT.MO.VISIT" Mandatory="No" OrderNumber="33" Role="Timing"/>
                <ItemRef ItemOID="IT.MO.VISITDY" Mandatory="No" OrderNumber="34" Role="Timing"/>
                <ItemRef ItemOID="IT.MO.MODTC" Mandatory="No" OrderNumber="35" Role="Timing"/>
                <ItemRef ItemOID="IT.MO.MODY" Mandatory="No" OrderNumber="36" Role="Timing"/>
                <ItemRef ItemOID="IT.MO.MOTPT" Mandatory="No" OrderNumber="37" Role="Timing"/>
                <ItemRef ItemOID="IT.MO.MOTPTNUM" Mandatory="No" OrderNumber="38" Role="Timing"/>
                <ItemRef ItemOID="IT.MO.MOELTM" Mandatory="No" OrderNumber="39" Role="Timing"/>
                <ItemRef ItemOID="IT.MO.MOTPTREF" Mandatory="No" OrderNumber="40" Role="Timing"/>
                <ItemRef ItemOID="IT.MO.MORFTDTC" Mandatory="No" OrderNumber="41" Role="Timing"/>
                <def:Class Name="FINDINGS"/>
            </ItemGroupDef>
            <ItemGroupDef Domain="PC" Name="PC" OID="IGD.PC" Purpose="Tabulation" Repeating="No"
                def:Structure="One record per sample characteristic or time-point concentration per reference time point or per analyte per subject">
                <Description>
                    <TranslatedText xml:lang="en">Pharmacokinetic Concentrations</TranslatedText>
                </Description>
                <ItemRef ItemOID="IT.PC.STUDYID" Mandatory="No" OrderNumber="1" Role="Identifier"/>
                <ItemRef ItemOID="IT.PC.DOMAIN" Mandatory="No" OrderNumber="2" Role="Identifier"/>
                <ItemRef ItemOID="IT.PC.USUBJID" Mandatory="No" OrderNumber="3" Role="Identifier"/>
                <ItemRef ItemOID="IT.PC.PCSEQ" Mandatory="No" OrderNumber="4" Role="Identifier"/>
                <ItemRef ItemOID="IT.PC.PCGRPID" Mandatory="No" OrderNumber="5" Role="Identifier"/>
                <ItemRef ItemOID="IT.PC.PCREFID" Mandatory="No" OrderNumber="6" Role="Identifier"/>
                <ItemRef ItemOID="IT.PC.PCSPID" Mandatory="No" OrderNumber="7" Role="Identifier"/>
                <ItemRef ItemOID="IT.PC.PCTESTCD" Mandatory="No" OrderNumber="8" Role="Topic"/>
                <ItemRef ItemOID="IT.PC.PCTEST" Mandatory="No" OrderNumber="9"
                    Role="Synonym Qualifier"/>
                <ItemRef ItemOID="IT.PC.PCCAT" Mandatory="No" OrderNumber="10"
                    Role="Grouping Qualifier"/>
                <ItemRef ItemOID="IT.PC.PCSCAT" Mandatory="No" OrderNumber="11"
                    Role="Grouping Qualifier"/>
                <ItemRef ItemOID="IT.PC.PCORRES" Mandatory="No" OrderNumber="12"
                    Role="Result Qualifier"/>
                <ItemRef ItemOID="IT.PC.PCORRESU" Mandatory="No" OrderNumber="13"
                    Role="Variable Qualifier"/>
                <ItemRef ItemOID="IT.PC.PCSTRESC" Mandatory="No" OrderNumber="14"
                    Role="Result Qualifier"/>
                <ItemRef ItemOID="IT.PC.PCSTRESN" Mandatory="No" OrderNumber="15"
                    Role="Result Qualifier"/>
                <ItemRef ItemOID="IT.PC.PCSTRESU" Mandatory="No" OrderNumber="16"
                    Role="Variable Qualifier"/>
                <ItemRef ItemOID="IT.PC.PCSTAT" Mandatory="No" OrderNumber="17"
                    Role="Record Qualifier"/>
                <ItemRef ItemOID="IT.PC.PCREASND" Mandatory="No" OrderNumber="18"
                    Role="Record Qualifier"/>
                <ItemRef ItemOID="IT.PC.PCNAM" Mandatory="No" OrderNumber="19"
                    Role="Record Qualifier"/>
                <ItemRef ItemOID="IT.PC.PCSPEC" Mandatory="No" OrderNumber="20"
                    Role="Record Qualifier"/>
                <ItemRef ItemOID="IT.PC.PCSPCCND" Mandatory="No" OrderNumber="21"
                    Role="Record Qualifier"/>
                <ItemRef ItemOID="IT.PC.PCMETHOD" Mandatory="No" OrderNumber="22"
                    Role="Record Qualifier"/>
                <ItemRef ItemOID="IT.PC.PCFAST" Mandatory="No" OrderNumber="23"
                    Role="Record Qualifier"/>
                <ItemRef ItemOID="IT.PC.PCDRVFL" Mandatory="No" OrderNumber="24"
                    Role="Record Qualifier"/>
                <ItemRef ItemOID="IT.PC.PCLLOQ" Mandatory="No" OrderNumber="25"
                    Role="Variable Qualifier"/>
                <ItemRef ItemOID="IT.PC.PCULOQ" Mandatory="No" OrderNumber="26"
                    Role="Variable Qualifier"/>
                <ItemRef ItemOID="IT.PC.VISITNUM" Mandatory="No" OrderNumber="27" Role="Timing"/>
                <ItemRef ItemOID="IT.PC.VISIT" Mandatory="No" OrderNumber="28" Role="Timing"/>
                <ItemRef ItemOID="IT.PC.VISITDY" Mandatory="No" OrderNumber="29" Role="Timing"/>
                <ItemRef ItemOID="IT.PC.PCDTC" Mandatory="No" OrderNumber="30" Role="Timing"/>
                <ItemRef ItemOID="IT.PC.PCENDTC" Mandatory="No" OrderNumber="31" Role="Timing"/>
                <ItemRef ItemOID="IT.PC.PCDY" Mandatory="No" OrderNumber="32" Role="Timing"/>
                <ItemRef ItemOID="IT.PC.PCTPT" Mandatory="No" OrderNumber="33" Role="Timing"/>
                <ItemRef ItemOID="IT.PC.PCTPTNUM" Mandatory="No" OrderNumber="34" Role="Timing"/>
                <ItemRef ItemOID="IT.PC.PCELTM" Mandatory="No" OrderNumber="35" Role="Timing"/>
                <ItemRef ItemOID="IT.PC.PCTPTREF" Mandatory="No" OrderNumber="36" Role="Timing"/>
                <ItemRef ItemOID="IT.PC.PCRFTDTC" Mandatory="No" OrderNumber="37" Role="Timing"/>
                <ItemRef ItemOID="IT.PC.PCEVLINT" Mandatory="No" OrderNumber="38" Role="Timing"/>
                <def:Class Name="FINDINGS"/>
            </ItemGroupDef>
            <ItemGroupDef Domain="PP" Name="PP" OID="IGD.PP" Purpose="Tabulation" Repeating="No"
                def:Structure="One record per PK parameter per time-concentration profile per subject">
                <Description>
                    <TranslatedText xml:lang="en">Pharmacokinetic Parameters</TranslatedText>
                </Description>
                <ItemRef ItemOID="IT.PP.STUDYID" Mandatory="No" OrderNumber="1" Role="Identifier"/>
                <ItemRef ItemOID="IT.PP.DOMAIN" Mandatory="No" OrderNumber="2" Role="Identifier"/>
                <ItemRef ItemOID="IT.PP.USUBJID" Mandatory="No" OrderNumber="3" Role="Identifier"/>
                <ItemRef ItemOID="IT.PP.PPSEQ" Mandatory="No" OrderNumber="4" Role="Identifier"/>
                <ItemRef ItemOID="IT.PP.PPGRPID" Mandatory="No" OrderNumber="5" Role="Identifier"/>
                <ItemRef ItemOID="IT.PP.PPTESTCD" Mandatory="No" OrderNumber="6" Role="Topic"/>
                <ItemRef ItemOID="IT.PP.PPTEST" Mandatory="No" OrderNumber="7"
                    Role="Synonym Qualifier"/>
                <ItemRef ItemOID="IT.PP.PPCAT" Mandatory="No" OrderNumber="8"
                    Role="Grouping Qualifier"/>
                <ItemRef ItemOID="IT.PP.PPSCAT" Mandatory="No" OrderNumber="9"
                    Role="Grouping Qualifier"/>
                <ItemRef ItemOID="IT.PP.PPORRES" Mandatory="No" OrderNumber="10"
                    Role="Result Qualifier"/>
                <ItemRef ItemOID="IT.PP.PPORRESU" Mandatory="No" OrderNumber="11"
                    Role="Variable Qualifier"/>
                <ItemRef ItemOID="IT.PP.PPSTRESC" Mandatory="No" OrderNumber="12"
                    Role="Result Qualifier"/>
                <ItemRef ItemOID="IT.PP.PPSTRESN" Mandatory="No" OrderNumber="13"
                    Role="Result Qualifier"/>
                <ItemRef ItemOID="IT.PP.PPSTRESU" Mandatory="No" OrderNumber="14"
                    Role="Variable Qualifier"/>
                <ItemRef ItemOID="IT.PP.PPSTAT" Mandatory="No" OrderNumber="15"
                    Role="Record Qualifier"/>
                <ItemRef ItemOID="IT.PP.PPREASND" Mandatory="No" OrderNumber="16"
                    Role="Record Qualifier"/>
                <ItemRef ItemOID="IT.PP.PPSPEC" Mandatory="No" OrderNumber="17"
                    Role="Record Qualifier"/>
                <ItemRef ItemOID="IT.PP.PPDTC" Mandatory="No" OrderNumber="18" Role="Timing"/>
                <ItemRef ItemOID="IT.PP.PPRFTDTC" Mandatory="No" OrderNumber="19" Role="Timing"/>
                <ItemRef ItemOID="IT.PP.PPSTINT" Mandatory="No" OrderNumber="20" Role="Timing"/>
                <ItemRef ItemOID="IT.PP.PPENINT" Mandatory="No" OrderNumber="21" Role="Timing"/>
                <def:Class Name="FINDINGS"/>
            </ItemGroupDef>
            <ItemGroupDef Domain="PE" Name="PE" OID="IGD.PE" Purpose="Tabulation" Repeating="No"
                def:Structure="One record per body system or abnormality per visit per subject">
                <Description>
                    <TranslatedText xml:lang="en">Physical Examination</TranslatedText>
                </Description>
                <ItemRef ItemOID="IT.PE.STUDYID" Mandatory="No" OrderNumber="1" Role="Identifier"/>
                <ItemRef ItemOID="IT.PE.DOMAIN" Mandatory="No" OrderNumber="2" Role="Identifier"/>
                <ItemRef ItemOID="IT.PE.USUBJID" Mandatory="No" OrderNumber="3" Role="Identifier"/>
                <ItemRef ItemOID="IT.PE.PESEQ" Mandatory="No" OrderNumber="4" Role="Identifier"/>
                <ItemRef ItemOID="IT.PE.PEGRPID" Mandatory="No" OrderNumber="5" Role="Identifier"/>
                <ItemRef ItemOID="IT.PE.PESPID" Mandatory="No" OrderNumber="6" Role="Identifier"/>
                <ItemRef ItemOID="IT.PE.PETESTCD" Mandatory="No" OrderNumber="7" Role="Topic"/>
                <ItemRef ItemOID="IT.PE.PETEST" Mandatory="No" OrderNumber="8"
                    Role="Synonym Qualifier"/>
                <ItemRef ItemOID="IT.PE.PEMODIFY" Mandatory="No" OrderNumber="9"
                    Role="Synonym Qualifier"/>
                <ItemRef ItemOID="IT.PE.PECAT" Mandatory="No" OrderNumber="10"
                    Role="Grouping Qualifier"/>
                <ItemRef ItemOID="IT.PE.PESCAT" Mandatory="No" OrderNumber="11"
                    Role="Grouping Qualifier"/>
                <ItemRef ItemOID="IT.PE.PEBODSYS" Mandatory="No" OrderNumber="12"
                    Role="Result Qualifier"/>
                <ItemRef ItemOID="IT.PE.PEORRES" Mandatory="No" OrderNumber="13"
                    Role="Result Qualifier"/>
                <ItemRef ItemOID="IT.PE.PEORRESU" Mandatory="No" OrderNumber="14"
                    Role="Variable Qualifier"/>
                <ItemRef ItemOID="IT.PE.PESTRESC" Mandatory="No" OrderNumber="15"
                    Role="Result Qualifier"/>
                <ItemRef ItemOID="IT.PE.PESTAT" Mandatory="No" OrderNumber="16"
                    Role="Record Qualifier"/>
                <ItemRef ItemOID="IT.PE.PEREASND" Mandatory="No" OrderNumber="17"
                    Role="Record Qualifier"/>
                <ItemRef ItemOID="IT.PE.PELOC" Mandatory="No" OrderNumber="18"
                    Role="Record Qualifier"/>
                <ItemRef ItemOID="IT.PE.PEMETHOD" Mandatory="No" OrderNumber="19"
                    Role="Record Qualifier"/>
                <ItemRef ItemOID="IT.PE.PEEVAL" Mandatory="No" OrderNumber="20"
                    Role="Record Qualifier"/>
                <ItemRef ItemOID="IT.PE.VISITNUM" Mandatory="No" OrderNumber="21" Role="Timing"/>
                <ItemRef ItemOID="IT.PE.VISIT" Mandatory="No" OrderNumber="22" Role="Timing"/>
                <ItemRef ItemOID="IT.PE.VISITDY" Mandatory="No" OrderNumber="23" Role="Timing"/>
                <ItemRef ItemOID="IT.PE.PEDTC" Mandatory="No" OrderNumber="24" Role="Timing"/>
                <ItemRef ItemOID="IT.PE.PEDY" Mandatory="No" OrderNumber="25" Role="Timing"/>
                <def:Class Name="FINDINGS"/>
            </ItemGroupDef>
            <ItemGroupDef Domain="QS" Name="QS" OID="IGD.QS" Purpose="Tabulation" Repeating="No"
                def:Structure="One record per questionnaire per question per time point per visit per subject">
                <Description>
                    <TranslatedText xml:lang="en">Questionnaires</TranslatedText>
                </Description>
                <ItemRef ItemOID="IT.QS.STUDYID" Mandatory="No" OrderNumber="1" Role="Identifier"/>
                <ItemRef ItemOID="IT.QS.DOMAIN" Mandatory="No" OrderNumber="2" Role="Identifier"/>
                <ItemRef ItemOID="IT.QS.USUBJID" Mandatory="No" OrderNumber="3" Role="Identifier"/>
                <ItemRef ItemOID="IT.QS.QSSEQ" Mandatory="No" OrderNumber="4" Role="Identifier"/>
                <ItemRef ItemOID="IT.QS.QSGRPID" Mandatory="No" OrderNumber="5" Role="Identifier"/>
                <ItemRef ItemOID="IT.QS.QSSPID" Mandatory="No" OrderNumber="6" Role="Identifier"/>
                <ItemRef ItemOID="IT.QS.QSTESTCD" Mandatory="No" OrderNumber="7" Role="Topic"/>
                <ItemRef ItemOID="IT.QS.QSTEST" Mandatory="No" OrderNumber="8"
                    Role="Synonym Qualifier"/>
                <ItemRef ItemOID="IT.QS.QSCAT" Mandatory="No" OrderNumber="9"
                    Role="Grouping Qualifier"/>
                <ItemRef ItemOID="IT.QS.QSSCAT" Mandatory="No" OrderNumber="10"
                    Role="Grouping Qualifier"/>
                <ItemRef ItemOID="IT.QS.QSORRES" Mandatory="No" OrderNumber="11"
                    Role="Result Qualifier"/>
                <ItemRef ItemOID="IT.QS.QSORRESU" Mandatory="No" OrderNumber="12"
                    Role="Variable Qualifier"/>
                <ItemRef ItemOID="IT.QS.QSSTRESC" Mandatory="No" OrderNumber="13"
                    Role="Result Qualifier"/>
                <ItemRef ItemOID="IT.QS.QSSTRESN" Mandatory="No" OrderNumber="14"
                    Role="Result Qualifier"/>
                <ItemRef ItemOID="IT.QS.QSSTRESU" Mandatory="No" OrderNumber="15"
                    Role="Variable Qualifier"/>
                <ItemRef ItemOID="IT.QS.QSSTAT" Mandatory="No" OrderNumber="16"
                    Role="Record Qualifier"/>
                <ItemRef ItemOID="IT.QS.QSREASND" Mandatory="No" OrderNumber="17"
                    Role="Record Qualifier"/>
                <ItemRef ItemOID="IT.QS.QSBLFL" Mandatory="No" OrderNumber="18"
                    Role="Record Qualifier"/>
                <ItemRef ItemOID="IT.QS.QSDRVFL" Mandatory="No" OrderNumber="19"
                    Role="Record Qualifier"/>
                <ItemRef ItemOID="IT.QS.QSEVAL" Mandatory="No" OrderNumber="20"
                    Role="Record Qualifier"/>
                <ItemRef ItemOID="IT.QS.VISITNUM" Mandatory="No" OrderNumber="21" Role="Timing"/>
                <ItemRef ItemOID="IT.QS.VISIT" Mandatory="No" OrderNumber="22" Role="Timing"/>
                <ItemRef ItemOID="IT.QS.VISITDY" Mandatory="No" OrderNumber="23" Role="Timing"/>
                <ItemRef ItemOID="IT.QS.QSDTC" Mandatory="No" OrderNumber="24" Role="Timing"/>
                <ItemRef ItemOID="IT.QS.QSDY" Mandatory="No" OrderNumber="25" Role="Timing"/>
                <ItemRef ItemOID="IT.QS.QSTPT" Mandatory="No" OrderNumber="26" Role="Timing"/>
                <ItemRef ItemOID="IT.QS.QSTPTNUM" Mandatory="No" OrderNumber="27" Role="Timing"/>
                <ItemRef ItemOID="IT.QS.QSELTM" Mandatory="No" OrderNumber="28" Role="Timing"/>
                <ItemRef ItemOID="IT.QS.QSTPTREF" Mandatory="No" OrderNumber="29" Role="Timing"/>
                <ItemRef ItemOID="IT.QS.QSRFTDTC" Mandatory="No" OrderNumber="30" Role="Timing"/>
                <ItemRef ItemOID="IT.QS.QSEVLINT" Mandatory="No" OrderNumber="31" Role="Timing"/>
                <def:Class Name="FINDINGS"/>
            </ItemGroupDef>
            <ItemGroupDef Domain="RP" Name="RP" OID="IGD.RP" Purpose="Tabulation" Repeating="No"
                def:Structure="One record per Reproductive System Finding per time point per visit per subject">
                <Description>
                    <TranslatedText xml:lang="en">Reproductive System Findings</TranslatedText>
                </Description>
                <ItemRef ItemOID="IT.RP.STUDYID" Mandatory="No" OrderNumber="1" Role="Identifier"/>
                <ItemRef ItemOID="IT.RP.DOMAIN" Mandatory="No" OrderNumber="2" Role="Identifier"/>
                <ItemRef ItemOID="IT.RP.USUBJID" Mandatory="No" OrderNumber="3" Role="Identifier"/>
                <ItemRef ItemOID="IT.RP.RPSEQ" Mandatory="No" OrderNumber="4" Role="Identifier"/>
                <ItemRef ItemOID="IT.RP.RPGRPID" Mandatory="No" OrderNumber="5" Role="Identifier"/>
                <ItemRef ItemOID="IT.RP.RPREFID" Mandatory="No" OrderNumber="6" Role="Identifier"/>
                <ItemRef ItemOID="IT.RP.RPSPID" Mandatory="No" OrderNumber="7" Role="Identifier"/>
                <ItemRef ItemOID="IT.RP.RPTESTCD" Mandatory="No" OrderNumber="8" Role="Topic"/>
                <ItemRef ItemOID="IT.RP.RPTEST" Mandatory="No" OrderNumber="9"
                    Role="Synonym Qualifier"/>
                <ItemRef ItemOID="IT.RP.RPCAT" Mandatory="No" OrderNumber="10"
                    Role="Grouping Qualifier"/>
                <ItemRef ItemOID="IT.RP.RPSCAT" Mandatory="No" OrderNumber="11"
                    Role="Grouping Qualifier"/>
                <ItemRef ItemOID="IT.RP.RPORRES" Mandatory="No" OrderNumber="12"
                    Role="Result Qualifier"/>
                <ItemRef ItemOID="IT.RP.RPORRESU" Mandatory="No" OrderNumber="13"
                    Role="Variable Qualifier"/>
                <ItemRef ItemOID="IT.RP.RPSTRESC" Mandatory="No" OrderNumber="14"
                    Role="Result Qualifier"/>
                <ItemRef ItemOID="IT.RP.RPSTRESN" Mandatory="No" OrderNumber="15"
                    Role="Result Qualifier"/>
                <ItemRef ItemOID="IT.RP.RPSTRESU" Mandatory="No" OrderNumber="16"
                    Role="Variable Qualifier"/>
                <ItemRef ItemOID="IT.RP.RPSTAT" Mandatory="No" OrderNumber="17"
                    Role="Record Qualifier"/>
                <ItemRef ItemOID="IT.RP.RPREASND" Mandatory="No" OrderNumber="18"
                    Role="Record Qualifier"/>
                <ItemRef ItemOID="IT.RP.RPBLFL" Mandatory="No" OrderNumber="19"
                    Role="Record Qualifier"/>
                <ItemRef ItemOID="IT.RP.RPDRVFL" Mandatory="No" OrderNumber="20"
                    Role="Record Qualifier"/>
                <ItemRef ItemOID="IT.RP.VISITNUM" Mandatory="No" OrderNumber="21" Role="Timing"/>
                <ItemRef ItemOID="IT.RP.VISIT" Mandatory="No" OrderNumber="22" Role="Timing"/>
                <ItemRef ItemOID="IT.RP.VISITDY" Mandatory="No" OrderNumber="23" Role="Timing"/>
                <ItemRef ItemOID="IT.RP.RPDTC" Mandatory="No" OrderNumber="24" Role="Timing"/>
                <ItemRef ItemOID="IT.RP.RPDY" Mandatory="No" OrderNumber="25" Role="Timing"/>
                <def:Class Name="FINDINGS"/>
            </ItemGroupDef>
            <ItemGroupDef Domain="SC" Name="SC" OID="IGD.SC" Purpose="Tabulation" Repeating="No"
                def:Structure="One record per characteristic per subject">
                <Description>
                    <TranslatedText xml:lang="en">Subject Characteristics</TranslatedText>
                </Description>
                <ItemRef ItemOID="IT.SC.STUDYID" Mandatory="No" OrderNumber="1" Role="Identifier"/>
                <ItemRef ItemOID="IT.SC.DOMAIN" Mandatory="No" OrderNumber="2" Role="Identifier"/>
                <ItemRef ItemOID="IT.SC.USUBJID" Mandatory="No" OrderNumber="3" Role="Identifier"/>
                <ItemRef ItemOID="IT.SC.SCSEQ" Mandatory="No" OrderNumber="4" Role="Identifier"/>
                <ItemRef ItemOID="IT.SC.SCGRPID" Mandatory="No" OrderNumber="5" Role="Identifier"/>
                <ItemRef ItemOID="IT.SC.SCSPID" Mandatory="No" OrderNumber="6" Role="Identifier"/>
                <ItemRef ItemOID="IT.SC.SCTESTCD" Mandatory="No" OrderNumber="7" Role="Topic"/>
                <ItemRef ItemOID="IT.SC.SCTEST" Mandatory="No" OrderNumber="8"
                    Role="Synonym Qualifier"/>
                <ItemRef ItemOID="IT.SC.SCCAT" Mandatory="No" OrderNumber="9"
                    Role="Grouping Qualifier"/>
                <ItemRef ItemOID="IT.SC.SCSCAT" Mandatory="No" OrderNumber="10"
                    Role="Grouping Qualifier"/>
                <ItemRef ItemOID="IT.SC.SCORRES" Mandatory="No" OrderNumber="11"
                    Role="Result Qualifier"/>
                <ItemRef ItemOID="IT.SC.SCORRESU" Mandatory="No" OrderNumber="12"
                    Role="Variable Qualifier"/>
                <ItemRef ItemOID="IT.SC.SCSTRESC" Mandatory="No" OrderNumber="13"
                    Role="Result Qualifier"/>
                <ItemRef ItemOID="IT.SC.SCSTRESN" Mandatory="No" OrderNumber="14"
                    Role="Result Qualifier"/>
                <ItemRef ItemOID="IT.SC.SCSTRESU" Mandatory="No" OrderNumber="15"
                    Role="Variable Qualifier"/>
                <ItemRef ItemOID="IT.SC.SCSTAT" Mandatory="No" OrderNumber="16"
                    Role="Record Qualifier"/>
                <ItemRef ItemOID="IT.SC.SCREASND" Mandatory="No" OrderNumber="17"
                    Role="Record Qualifier"/>
                <ItemRef ItemOID="IT.SC.SCDTC" Mandatory="No" OrderNumber="18" Role="Timing"/>
                <ItemRef ItemOID="IT.SC.SCDY" Mandatory="No" OrderNumber="19" Role="Timing"/>
                <def:Class Name="FINDINGS"/>
            </ItemGroupDef>
            <ItemGroupDef Domain="SS" Name="SS" OID="IGD.SS" Purpose="Tabulation" Repeating="No"
                def:Structure="One record per finding per visit per subject">
                <Description>
                    <TranslatedText xml:lang="en">Subject Status</TranslatedText>
                </Description>
                <ItemRef ItemOID="IT.SS.STUDYID" Mandatory="No" OrderNumber="1" Role="Identifier"/>
                <ItemRef ItemOID="IT.SS.DOMAIN" Mandatory="No" OrderNumber="2" Role="Identifier"/>
                <ItemRef ItemOID="IT.SS.USUBJID" Mandatory="No" OrderNumber="3" Role="Identifier"/>
                <ItemRef ItemOID="IT.SS.SSSEQ" Mandatory="No" OrderNumber="4" Role="Identifier"/>
                <ItemRef ItemOID="IT.SS.SSGRPID" Mandatory="No" OrderNumber="5" Role="Identifier"/>
                <ItemRef ItemOID="IT.SS.SSSPID" Mandatory="No" OrderNumber="6" Role="Identifier"/>
                <ItemRef ItemOID="IT.SS.SSTESTCD" Mandatory="No" OrderNumber="7" Role="Topic"/>
                <ItemRef ItemOID="IT.SS.SSTEST" Mandatory="No" OrderNumber="8"
                    Role="Synonym Qualifier"/>
                <ItemRef ItemOID="IT.SS.SSCAT" Mandatory="No" OrderNumber="9"
                    Role="Grouping Qualifier"/>
                <ItemRef ItemOID="IT.SS.SSSCAT" Mandatory="No" OrderNumber="10"
                    Role="Grouping Qualifier"/>
                <ItemRef ItemOID="IT.SS.SSORRES" Mandatory="No" OrderNumber="11"
                    Role="Result Qualifier"/>
                <ItemRef ItemOID="IT.SS.SSSTRESC" Mandatory="No" OrderNumber="12"
                    Role="Result Qualifier"/>
                <ItemRef ItemOID="IT.SS.SSSTAT" Mandatory="No" OrderNumber="13"
                    Role="Record Qualifier"/>
                <ItemRef ItemOID="IT.SS.SSREASND" Mandatory="No" OrderNumber="14"
                    Role="Record Qualifier"/>
                <ItemRef ItemOID="IT.SS.SSEVAL" Mandatory="No" OrderNumber="15"
                    Role="Record Qualifier"/>
                <ItemRef ItemOID="IT.SS.VISITNUM" Mandatory="No" OrderNumber="16" Role="Timing"/>
                <ItemRef ItemOID="IT.SS.VISIT" Mandatory="No" OrderNumber="17" Role="Timing"/>
                <ItemRef ItemOID="IT.SS.VISITDY" Mandatory="No" OrderNumber="18" Role="Timing"/>
                <ItemRef ItemOID="IT.SS.SSDTC" Mandatory="No" OrderNumber="19" Role="Timing"/>
                <ItemRef ItemOID="IT.SS.SSDY" Mandatory="No" OrderNumber="20" Role="Timing"/>
                <def:Class Name="FINDINGS"/>
            </ItemGroupDef>
            <ItemGroupDef Domain="TU" Name="TU" OID="IGD.TU" Purpose="Tabulation" Repeating="No"
                def:Structure="One record per identified tumor per subject per assessor">
                <Description>
                    <TranslatedText xml:lang="en">Tumor Identification</TranslatedText>
                </Description>
                <ItemRef ItemOID="IT.TU.STUDYID" Mandatory="No" OrderNumber="1" Role="Identifier"/>
                <ItemRef ItemOID="IT.TU.DOMAIN" Mandatory="No" OrderNumber="2" Role="Identifier"/>
                <ItemRef ItemOID="IT.TU.USUBJID" Mandatory="No" OrderNumber="3" Role="Identifier"/>
                <ItemRef ItemOID="IT.TU.TUSEQ" Mandatory="No" OrderNumber="4" Role="Identifier"/>
                <ItemRef ItemOID="IT.TU.TUGRPID" Mandatory="No" OrderNumber="5" Role="Identifier"/>
                <ItemRef ItemOID="IT.TU.TUREFID" Mandatory="No" OrderNumber="6" Role="Identifier"/>
                <ItemRef ItemOID="IT.TU.TUSPID" Mandatory="No" OrderNumber="7" Role="Identifier"/>
                <ItemRef ItemOID="IT.TU.TULNKID" Mandatory="No" OrderNumber="8" Role="Identifier"/>
                <ItemRef ItemOID="IT.TU.TUTESTCD" Mandatory="No" OrderNumber="9" Role="Topic"/>
                <ItemRef ItemOID="IT.TU.TUTEST" Mandatory="No" OrderNumber="10"
                    Role="Synonym Qualifier"/>
                <ItemRef ItemOID="IT.TU.TUORRES" Mandatory="No" OrderNumber="11"
                    Role="Result Qualifier"/>
                <ItemRef ItemOID="IT.TU.TUSTRESC" Mandatory="No" OrderNumber="12"
                    Role="Record Qualifier"/>
                <ItemRef ItemOID="IT.TU.TUNAM" Mandatory="No" OrderNumber="13"
                    Role="Record Qualifier"/>
                <ItemRef ItemOID="IT.TU.TULOC" Mandatory="No" OrderNumber="14"
                    Role="Record Qualifier"/>
                <ItemRef ItemOID="IT.TU.TULAT" Mandatory="No" OrderNumber="15"
                    Role="Record Qualifier"/>
                <ItemRef ItemOID="IT.TU.TUDIR" Mandatory="No" OrderNumber="16"
                    Role="Record Qualifier"/>
                <ItemRef ItemOID="IT.TU.TUPORTOT" Mandatory="No" OrderNumber="17"
                    Role="Record Qualifier"/>
                <ItemRef ItemOID="IT.TU.TUMETHOD" Mandatory="No" OrderNumber="18"
                    Role="Record Qualifier"/>
                <ItemRef ItemOID="IT.TU.TUEVAL" Mandatory="No" OrderNumber="19"
                    Role="Record Qualifier"/>
                <ItemRef ItemOID="IT.TU.TUEVALID" Mandatory="No" OrderNumber="20"
                    Role="Variable Qualifier"/>
                <ItemRef ItemOID="IT.TU.TUACPTFL" Mandatory="No" OrderNumber="21"
                    Role="Record Qualifier"/>
                <ItemRef ItemOID="IT.TU.VISITNUM" Mandatory="No" OrderNumber="22" Role="Timing"/>
                <ItemRef ItemOID="IT.TU.VISIT" Mandatory="No" OrderNumber="23" Role="Timing"/>
                <ItemRef ItemOID="IT.TU.VISITDY" Mandatory="No" OrderNumber="24" Role="Timing"/>
                <ItemRef ItemOID="IT.TU.EPOCH" Mandatory="No" OrderNumber="25" Role="Timing"/>
                <ItemRef ItemOID="IT.TU.TUDTC" Mandatory="No" OrderNumber="26" Role="Timing"/>
                <ItemRef ItemOID="IT.TU.TUDY" Mandatory="No" OrderNumber="27" Role="Timing"/>
                <def:Class Name="FINDINGS"/>
            </ItemGroupDef>
            <ItemGroupDef Domain="TR" Name="TR" OID="IGD.TR" Purpose="Tabulation" Repeating="No"
                def:Structure="One record per tumor measurement/assessment per visit per subject per assessor">
                <Description>
                    <TranslatedText xml:lang="en">Tumor Results</TranslatedText>
                </Description>
                <ItemRef ItemOID="IT.TR.STUDYID" Mandatory="No" OrderNumber="1" Role="Identifier"/>
                <ItemRef ItemOID="IT.TR.DOMAIN" Mandatory="No" OrderNumber="2" Role="Identifier"/>
                <ItemRef ItemOID="IT.TR.USUBJID" Mandatory="No" OrderNumber="3" Role="Identifier"/>
                <ItemRef ItemOID="IT.TR.TRSEQ" Mandatory="No" OrderNumber="4" Role="Identifier"/>
                <ItemRef ItemOID="IT.TR.TRGRPID" Mandatory="No" OrderNumber="5" Role="Identifier"/>
                <ItemRef ItemOID="IT.TR.TRREFID" Mandatory="No" OrderNumber="6" Role="Identifier"/>
                <ItemRef ItemOID="IT.TR.TRSPID" Mandatory="No" OrderNumber="7" Role="Identifier"/>
                <ItemRef ItemOID="IT.TR.TRLNKID" Mandatory="No" OrderNumber="8" Role="Identifier"/>
                <ItemRef ItemOID="IT.TR.TRLNKGRP" Mandatory="No" OrderNumber="9" Role="Identifier"/>
                <ItemRef ItemOID="IT.TR.TRTESTCD" Mandatory="No" OrderNumber="10" Role="Topic"/>
                <ItemRef ItemOID="IT.TR.TRTEST" Mandatory="No" OrderNumber="11"
                    Role="Synonym Qualifier"/>
                <ItemRef ItemOID="IT.TR.TRORRES" Mandatory="No" OrderNumber="12"
                    Role="Result Qualifier"/>
                <ItemRef ItemOID="IT.TR.TRORRESU" Mandatory="No" OrderNumber="13"
                    Role="Variable Qualifier"/>
                <ItemRef ItemOID="IT.TR.TRSTRESC" Mandatory="No" OrderNumber="14"
                    Role="Record Qualifier"/>
                <ItemRef ItemOID="IT.TR.TRSTRESN" Mandatory="No" OrderNumber="15"
                    Role="Result Qualifier"/>
                <ItemRef ItemOID="IT.TR.TRSTRESU" Mandatory="No" OrderNumber="16"
                    Role="Variable Qualifier"/>
                <ItemRef ItemOID="IT.TR.TRSTAT" Mandatory="No" OrderNumber="17"
                    Role="Result Qualifier"/>
                <ItemRef ItemOID="IT.TR.TRREASND" Mandatory="No" OrderNumber="18"
                    Role="Record Qualifier"/>
                <ItemRef ItemOID="IT.TR.TRNAM" Mandatory="No" OrderNumber="19"
                    Role="Record Qualifier"/>
                <ItemRef ItemOID="IT.TR.TRMETHOD" Mandatory="No" OrderNumber="20"
                    Role="Record Qualifier"/>
                <ItemRef ItemOID="IT.TR.TREVAL" Mandatory="No" OrderNumber="21"
                    Role="Record Qualifier"/>
                <ItemRef ItemOID="IT.TR.TREVALID" Mandatory="No" OrderNumber="22"
                    Role="Variable Qualifier"/>
                <ItemRef ItemOID="IT.TR.TRACPTFL" Mandatory="No" OrderNumber="23"
                    Role="Record Qualifier"/>
                <ItemRef ItemOID="IT.TR.VISITNUM" Mandatory="No" OrderNumber="24" Role="Timing"/>
                <ItemRef ItemOID="IT.TR.VISIT" Mandatory="No" OrderNumber="25" Role="Timing"/>
                <ItemRef ItemOID="IT.TR.VISITDY" Mandatory="No" OrderNumber="26" Role="Timing"/>
                <ItemRef ItemOID="IT.TR.EPOCH" Mandatory="No" OrderNumber="27" Role="Timing"/>
                <ItemRef ItemOID="IT.TR.TRDTC" Mandatory="No" OrderNumber="28" Role="Timing"/>
                <ItemRef ItemOID="IT.TR.TRDY" Mandatory="No" OrderNumber="29" Role="Timing"/>
                <def:Class Name="FINDINGS"/>
            </ItemGroupDef>
            <ItemGroupDef Domain="RS" Name="RS" OID="IGD.RS" Purpose="Tabulation" Repeating="No"
                def:Structure="One record per response assessment per visit per subject per assessor">
                <Description>
                    <TranslatedText xml:lang="en">Disease Response</TranslatedText>
                </Description>
                <ItemRef ItemOID="IT.RS.STUDYID" Mandatory="No" OrderNumber="1" Role="Identifier"/>
                <ItemRef ItemOID="IT.RS.DOMAIN" Mandatory="No" OrderNumber="2" Role="Identifier"/>
                <ItemRef ItemOID="IT.RS.USUBJID" Mandatory="No" OrderNumber="3" Role="Identifier"/>
                <ItemRef ItemOID="IT.RS.RSSEQ" Mandatory="No" OrderNumber="4" Role="Identifier"/>
                <ItemRef ItemOID="IT.RS.RSGRPID" Mandatory="No" OrderNumber="5" Role="Identifier"/>
                <ItemRef ItemOID="IT.RS.RSREFID" Mandatory="No" OrderNumber="6" Role="Identifier"/>
                <ItemRef ItemOID="IT.RS.RSSPID" Mandatory="No" OrderNumber="7" Role="Identifier"/>
                <ItemRef ItemOID="IT.RS.RSLNKID" Mandatory="No" OrderNumber="8" Role="Identifier"/>
                <ItemRef ItemOID="IT.RS.RSLNKGRP" Mandatory="No" OrderNumber="9" Role="Identifier"/>
                <ItemRef ItemOID="IT.RS.RSTESTCD" Mandatory="No" OrderNumber="10" Role="Topic"/>
                <ItemRef ItemOID="IT.RS.RSTEST" Mandatory="No" OrderNumber="11"
                    Role="Synonym Qualifier"/>
                <ItemRef ItemOID="IT.RS.RSCAT" Mandatory="No" OrderNumber="12"
                    Role="Grouping Qualifier"/>
                <ItemRef ItemOID="IT.RS.RSORRES" Mandatory="No" OrderNumber="13"
                    Role="Result Qualifier"/>
                <ItemRef ItemOID="IT.RS.RSSTRESC" Mandatory="No" OrderNumber="14"
                    Role="Record Qualifier"/>
                <ItemRef ItemOID="IT.RS.RSSTAT" Mandatory="No" OrderNumber="15"
                    Role="Result Qualifier"/>
                <ItemRef ItemOID="IT.RS.RSREASND" Mandatory="No" OrderNumber="16"
                    Role="Record Qualifier"/>
                <ItemRef ItemOID="IT.RS.RSNAM" Mandatory="No" OrderNumber="17"
                    Role="Record Qualifier"/>
                <ItemRef ItemOID="IT.RS.RSEVAL" Mandatory="No" OrderNumber="18"
                    Role="Record Qualifier"/>
                <ItemRef ItemOID="IT.RS.RSEVALID" Mandatory="No" OrderNumber="19"
                    Role="Variable Qualifier"/>
                <ItemRef ItemOID="IT.RS.RSACPTFL" Mandatory="No" OrderNumber="20"
                    Role="Record Qualifier"/>
                <ItemRef ItemOID="IT.RS.VISITNUM" Mandatory="No" OrderNumber="21" Role="Timing"/>
                <ItemRef ItemOID="IT.RS.VISIT" Mandatory="No" OrderNumber="22" Role="Timing"/>
                <ItemRef ItemOID="IT.RS.VISITDY" Mandatory="No" OrderNumber="23" Role="Timing"/>
                <ItemRef ItemOID="IT.RS.EPOCH" Mandatory="No" OrderNumber="24" Role="Timing"/>
                <ItemRef ItemOID="IT.RS.RSDTC" Mandatory="No" OrderNumber="25" Role="Timing"/>
                <ItemRef ItemOID="IT.RS.RSDY" Mandatory="No" OrderNumber="26" Role="Timing"/>
                <def:Class Name="FINDINGS"/>
            </ItemGroupDef>
            <ItemGroupDef Domain="VS" Name="VS" OID="IGD.VS" Purpose="Tabulation" Repeating="No"
                def:Structure="One record per vital sign measurement per time point per visit per subject">
                <Description>
                    <TranslatedText xml:lang="en">Vital Signs</TranslatedText>
                </Description>
                <ItemRef ItemOID="IT.VS.STUDYID" Mandatory="No" OrderNumber="1" Role="Identifier"/>
                <ItemRef ItemOID="IT.VS.DOMAIN" Mandatory="No" OrderNumber="2" Role="Identifier"/>
                <ItemRef ItemOID="IT.VS.USUBJID" Mandatory="No" OrderNumber="3" Role="Identifier"/>
                <ItemRef ItemOID="IT.VS.VSSEQ" Mandatory="No" OrderNumber="4" Role="Identifier"/>
                <ItemRef ItemOID="IT.VS.VSGRPID" Mandatory="No" OrderNumber="5" Role="Identifier"/>
                <ItemRef ItemOID="IT.VS.VSSPID" Mandatory="No" OrderNumber="6" Role="Identifier"/>
                <ItemRef ItemOID="IT.VS.VSTESTCD" Mandatory="No" OrderNumber="7" Role="Topic"/>
                <ItemRef ItemOID="IT.VS.VSTEST" Mandatory="No" OrderNumber="8"
                    Role="Synonym Qualifier"/>
                <ItemRef ItemOID="IT.VS.VSCAT" Mandatory="No" OrderNumber="9"
                    Role="Grouping Qualifier"/>
                <ItemRef ItemOID="IT.VS.VSSCAT" Mandatory="No" OrderNumber="10"
                    Role="Grouping Qualifier"/>
                <ItemRef ItemOID="IT.VS.VSPOS" Mandatory="No" OrderNumber="11"
                    Role="Record Qualifier"/>
                <ItemRef ItemOID="IT.VS.VSORRES" Mandatory="No" OrderNumber="12"
                    Role="Result Qualifier"/>
                <ItemRef ItemOID="IT.VS.VSORRESU" Mandatory="No" OrderNumber="13"
                    Role="Variable Qualifier"/>
                <ItemRef ItemOID="IT.VS.VSSTRESC" Mandatory="No" OrderNumber="14"
                    Role="Result Qualifier"/>
                <ItemRef ItemOID="IT.VS.VSSTRESN" Mandatory="No" OrderNumber="15"
                    Role="Result Qualifier"/>
                <ItemRef ItemOID="IT.VS.VSSTRESU" Mandatory="No" OrderNumber="16"
                    Role="Variable Qualifier"/>
                <ItemRef ItemOID="IT.VS.VSSTAT" Mandatory="No" OrderNumber="17"
                    Role="Record Qualifier"/>
                <ItemRef ItemOID="IT.VS.VSREASND" Mandatory="No" OrderNumber="18"
                    Role="Record Qualifier"/>
                <ItemRef ItemOID="IT.VS.VSLOC" Mandatory="No" OrderNumber="19"
                    Role="Record Qualifier"/>
                <ItemRef ItemOID="IT.VS.VSLAT" Mandatory="No" OrderNumber="20"
                    Role="Result Qualifier"/>
                <ItemRef ItemOID="IT.VS.VSBLFL" Mandatory="No" OrderNumber="21"
                    Role="Record Qualifier"/>
                <ItemRef ItemOID="IT.VS.VSDRVFL" Mandatory="No" OrderNumber="22"
                    Role="Record Qualifier"/>
                <ItemRef ItemOID="IT.VS.VISITNUM" Mandatory="No" OrderNumber="23" Role="Timing"/>
                <ItemRef ItemOID="IT.VS.VISIT" Mandatory="No" OrderNumber="24" Role="Timing"/>
                <ItemRef ItemOID="IT.VS.VISITDY" Mandatory="No" OrderNumber="25" Role="Timing"/>
                <ItemRef ItemOID="IT.VS.VSDTC" Mandatory="No" OrderNumber="26" Role="Timing"/>
                <ItemRef ItemOID="IT.VS.VSDY" Mandatory="No" OrderNumber="27" Role="Timing"/>
                <ItemRef ItemOID="IT.VS.VSTPT" Mandatory="No" OrderNumber="28" Role="Timing"/>
                <ItemRef ItemOID="IT.VS.VSTPTNUM" Mandatory="No" OrderNumber="29" Role="Timing"/>
                <ItemRef ItemOID="IT.VS.VSELTM" Mandatory="No" OrderNumber="30" Role="Timing"/>
                <ItemRef ItemOID="IT.VS.VSTPTREF" Mandatory="No" OrderNumber="31" Role="Timing"/>
                <ItemRef ItemOID="IT.VS.VSRFTDTC" Mandatory="No" OrderNumber="32" Role="Timing"/>
                <def:Class Name="FINDINGS"/>
            </ItemGroupDef>
            <ItemGroupDef Domain="FA" Name="FA" OID="IGD.FA" Purpose="Tabulation" Repeating="No"
                def:Structure="One record per finding, per object, per time point, per visit per subject">
                <Description>
                    <TranslatedText xml:lang="en">Findings About Events or
                        Interventions</TranslatedText>
                </Description>
                <ItemRef ItemOID="IT.FA.STUDYID" Mandatory="No" OrderNumber="1" Role="Identifier"/>
                <ItemRef ItemOID="IT.FA.DOMAIN" Mandatory="No" OrderNumber="2" Role="Identifier"/>
                <ItemRef ItemOID="IT.FA.USUBJID" Mandatory="No" OrderNumber="3" Role="Identifier"/>
                <ItemRef ItemOID="IT.FA.FASEQ" Mandatory="No" OrderNumber="4" Role="Identifier"/>
                <ItemRef ItemOID="IT.FA.FAGRPID" Mandatory="No" OrderNumber="5" Role="Identifier"/>
                <ItemRef ItemOID="IT.FA.FASPID" Mandatory="No" OrderNumber="6" Role="Identifier"/>
                <ItemRef ItemOID="IT.FA.FATESTCD" Mandatory="No" OrderNumber="7" Role="Topic"/>
                <ItemRef ItemOID="IT.FA.FATEST" Mandatory="No" OrderNumber="8"
                    Role="Synonym Qualifier"/>
                <ItemRef ItemOID="IT.FA.FAOBJ" Mandatory="No" OrderNumber="9"
                    Role="Record Qualifier"/>
                <ItemRef ItemOID="IT.FA.FACAT" Mandatory="No" OrderNumber="10"
                    Role="Grouping Qualifier"/>
                <ItemRef ItemOID="IT.FA.FASCAT" Mandatory="No" OrderNumber="11"
                    Role="Grouping Qualifier"/>
                <ItemRef ItemOID="IT.FA.FAORRES" Mandatory="No" OrderNumber="12"
                    Role="Result Qualifier"/>
                <ItemRef ItemOID="IT.FA.FAORRESU" Mandatory="No" OrderNumber="13"
                    Role="Variable Qualifier"/>
                <ItemRef ItemOID="IT.FA.FASTRESC" Mandatory="No" OrderNumber="14"
                    Role="Result Qualifier"/>
                <ItemRef ItemOID="IT.FA.FASTRESN" Mandatory="No" OrderNumber="15"
                    Role="Result Qualifier"/>
                <ItemRef ItemOID="IT.FA.FASTRESU" Mandatory="No" OrderNumber="16"
                    Role="Variable Qualifier"/>
                <ItemRef ItemOID="IT.FA.FASTAT" Mandatory="No" OrderNumber="17"
                    Role="Record Qualifier"/>
                <ItemRef ItemOID="IT.FA.FAREASND" Mandatory="No" OrderNumber="18"
                    Role="Record Qualifier"/>
                <ItemRef ItemOID="IT.FA.FALOC" Mandatory="No" OrderNumber="19"
                    Role="Record Qualifier"/>
                <ItemRef ItemOID="IT.FA.FALAT" Mandatory="No" OrderNumber="20"
                    Role="Result Qualifier"/>
                <ItemRef ItemOID="IT.FA.FABLFL" Mandatory="No" OrderNumber="21"
                    Role="Record Qualifier"/>
                <ItemRef ItemOID="IT.FA.FAEVAL" Mandatory="No" OrderNumber="22"
                    Role="Record Qualifier"/>
                <ItemRef ItemOID="IT.FA.VISITNUM" Mandatory="No" OrderNumber="23" Role="Timing"/>
                <ItemRef ItemOID="IT.FA.VISIT" Mandatory="No" OrderNumber="24" Role="Timing"/>
                <ItemRef ItemOID="IT.FA.VISITDY" Mandatory="No" OrderNumber="25" Role="Timing"/>
                <ItemRef ItemOID="IT.FA.FADTC" Mandatory="No" OrderNumber="26" Role="Timing"/>
                <ItemRef ItemOID="IT.FA.FADY" Mandatory="No" OrderNumber="27" Role="Timing"/>
                <def:Class Name="FINDINGS ABOUT"/>
            </ItemGroupDef>
            <ItemGroupDef Domain="SR" Name="SR" OID="IGD.SR" Purpose="Tabulation" Repeating="No"
                def:Structure="One record per test per visit per subject">
                <Description>
                    <TranslatedText xml:lang="en">Skin Response</TranslatedText>
                </Description>
                <ItemRef ItemOID="IT.SR.STUDYID" Mandatory="No" OrderNumber="1" Role="Identifier"/>
                <ItemRef ItemOID="IT.SR.DOMAIN" Mandatory="No" OrderNumber="2" Role="Identifier"/>
                <ItemRef ItemOID="IT.SR.USUBJID" Mandatory="No" OrderNumber="3" Role="Identifier"/>
                <ItemRef ItemOID="IT.SR.SRSEQ" Mandatory="No" OrderNumber="4" Role="Identifier"/>
                <ItemRef ItemOID="IT.SR.SRGRPID" Mandatory="No" OrderNumber="5" Role="Identifier"/>
                <ItemRef ItemOID="IT.SR.SRREFID" Mandatory="No" OrderNumber="6" Role="Identifier"/>
                <ItemRef ItemOID="IT.SR.SRSPID" Mandatory="No" OrderNumber="7" Role="Identifier"/>
                <ItemRef ItemOID="IT.SR.SRTESTCD" Mandatory="No" OrderNumber="8" Role="Topic"/>
                <ItemRef ItemOID="IT.SR.SRTEST" Mandatory="No" OrderNumber="9"
                    Role="Synonym Qualifier"/>
                <ItemRef ItemOID="IT.SR.SROBJ" Mandatory="No" OrderNumber="10"
                    Role="Record Qualifier"/>
                <ItemRef ItemOID="IT.SR.SRCAT" Mandatory="No" OrderNumber="11"
                    Role="Grouping Qualifier"/>
                <ItemRef ItemOID="IT.SR.SRSCAT" Mandatory="No" OrderNumber="12"
                    Role="Grouping Qualifier"/>
                <ItemRef ItemOID="IT.SR.SRORRES" Mandatory="No" OrderNumber="13"
                    Role="Result Qualifier"/>
                <ItemRef ItemOID="IT.SR.SRORRESU" Mandatory="No" OrderNumber="14"
                    Role="Variable Qualifier"/>
                <ItemRef ItemOID="IT.SR.SRSTRESC" Mandatory="No" OrderNumber="15"
                    Role="Result Qualifier"/>
                <ItemRef ItemOID="IT.SR.SRSTRESN" Mandatory="No" OrderNumber="16"
                    Role="Result Qualifier"/>
                <ItemRef ItemOID="IT.SR.SRSTRESU" Mandatory="No" OrderNumber="17"
                    Role="Variable Qualifier"/>
                <ItemRef ItemOID="IT.SR.SRSTAT" Mandatory="No" OrderNumber="18"
                    Role="Record Qualifier"/>
                <ItemRef ItemOID="IT.SR.SRREASND" Mandatory="No" OrderNumber="19"
                    Role="Record Qualifier"/>
                <ItemRef ItemOID="IT.SR.SRNAM" Mandatory="No" OrderNumber="20"
                    Role="Record Qualifier"/>
                <ItemRef ItemOID="IT.SR.SRSPEC" Mandatory="No" OrderNumber="21"
                    Role="Record Qualifier"/>
                <ItemRef ItemOID="IT.SR.SRLOC" Mandatory="No" OrderNumber="22"
                    Role="Record Qualifier"/>
                <ItemRef ItemOID="IT.SR.SRLAT" Mandatory="No" OrderNumber="23"
                    Role="Result Qualifier"/>
                <ItemRef ItemOID="IT.SR.SRMETHOD" Mandatory="No" OrderNumber="24"
                    Role="Record Qualifier"/>
                <ItemRef ItemOID="IT.SR.SREVAL" Mandatory="No" OrderNumber="25"
                    Role="Record Qualifier"/>
                <ItemRef ItemOID="IT.SR.VISITNUM" Mandatory="No" OrderNumber="26" Role="Timing"/>
                <ItemRef ItemOID="IT.SR.VISIT" Mandatory="No" OrderNumber="27" Role="Timing"/>
                <ItemRef ItemOID="IT.SR.VISITDY" Mandatory="No" OrderNumber="28" Role="Timing"/>
                <ItemRef ItemOID="IT.SR.SRDTC" Mandatory="No" OrderNumber="29" Role="Timing"/>
                <ItemRef ItemOID="IT.SR.SRDY" Mandatory="No" OrderNumber="30" Role="Timing"/>
                <ItemRef ItemOID="IT.SR.SRTPT" Mandatory="No" OrderNumber="31" Role="Timing"/>
                <ItemRef ItemOID="IT.SR.SRTPTNUM" Mandatory="No" OrderNumber="32" Role="Timing"/>
                <ItemRef ItemOID="IT.SR.SRELTM" Mandatory="No" OrderNumber="33" Role="Timing"/>
                <ItemRef ItemOID="IT.SR.SRTPTREF" Mandatory="No" OrderNumber="34" Role="Timing"/>
                <ItemRef ItemOID="IT.SR.SRRFTDTC" Mandatory="No" OrderNumber="35" Role="Timing"/>
                <def:Class Name="FINDINGS ABOUT"/>
            </ItemGroupDef>
            <ItemGroupDef Domain="TA" Name="TA" OID="IGD.TA" Purpose="Tabulation" Repeating="No"
                def:Structure="One record per planned Element per Arm">
                <Description>
                    <TranslatedText xml:lang="en">Trial Arms</TranslatedText>
                </Description>
                <ItemRef ItemOID="IT.TA.STUDYID" Mandatory="No" OrderNumber="1" Role="Identifier"/>
                <ItemRef ItemOID="IT.TA.DOMAIN" Mandatory="No" OrderNumber="2" Role="Identifier"/>
                <ItemRef ItemOID="IT.TA.ARMCD" Mandatory="No" OrderNumber="3" Role="Topic"/>
                <ItemRef ItemOID="IT.TA.ARM" Mandatory="No" OrderNumber="4" Role="Synonym Qualifier"/>
                <ItemRef ItemOID="IT.TA.TAETORD" Mandatory="No" OrderNumber="5" Role="Timing"/>
                <ItemRef ItemOID="IT.TA.ETCD" Mandatory="No" OrderNumber="6" Role="Record Qualifier"/>
                <ItemRef ItemOID="IT.TA.ELEMENT" Mandatory="No" OrderNumber="7"
                    Role="Synonym Qualifier"/>
                <ItemRef ItemOID="IT.TA.TABRANCH" Mandatory="No" OrderNumber="8" Role="Rule"/>
                <ItemRef ItemOID="IT.TA.TATRANS" Mandatory="No" OrderNumber="9" Role="Rule"/>
                <ItemRef ItemOID="IT.TA.EPOCH" Mandatory="No" OrderNumber="10" Role="Timing"/>
                <def:Class Name="TRIAL DESIGN"/>
            </ItemGroupDef>
            <ItemGroupDef Domain="TE" Name="TE" OID="IGD.TE" Purpose="Tabulation" Repeating="No"
                def:Structure="One record per planned Element">
                <Description>
                    <TranslatedText xml:lang="en">Trial Elements</TranslatedText>
                </Description>
                <ItemRef ItemOID="IT.TE.STUDYID" Mandatory="No" OrderNumber="1" Role="Identifier"/>
                <ItemRef ItemOID="IT.TE.DOMAIN" Mandatory="No" OrderNumber="2" Role="Identifier"/>
                <ItemRef ItemOID="IT.TE.ETCD" Mandatory="No" OrderNumber="3" Role="Topic"/>
                <ItemRef ItemOID="IT.TE.ELEMENT" Mandatory="No" OrderNumber="4"
                    Role="Synonym Qualifier"/>
                <ItemRef ItemOID="IT.TE.TESTRL" Mandatory="No" OrderNumber="5" Role="Rule"/>
                <ItemRef ItemOID="IT.TE.TEENRL" Mandatory="No" OrderNumber="6" Role="Rule"/>
                <ItemRef ItemOID="IT.TE.TEDUR" Mandatory="No" OrderNumber="7" Role="Timing"/>
                <def:Class Name="TRIAL DESIGN"/>
            </ItemGroupDef>
            <ItemGroupDef Domain="TV" Name="TV" OID="IGD.TV" Purpose="Tabulation" Repeating="No"
                def:Structure="One record per planned Visit per Arm">
                <Description>
                    <TranslatedText xml:lang="en">Trial Visits</TranslatedText>
                </Description>
                <ItemRef ItemOID="IT.TV.STUDYID" Mandatory="No" OrderNumber="1" Role="Identifier"/>
                <ItemRef ItemOID="IT.TV.DOMAIN" Mandatory="No" OrderNumber="2" Role="Identifier"/>
                <ItemRef ItemOID="IT.TV.VISITNUM" Mandatory="No" OrderNumber="3" Role="Topic"/>
                <ItemRef ItemOID="IT.TV.VISIT" Mandatory="No" OrderNumber="4"
                    Role="Synonym Qualifier"/>
                <ItemRef ItemOID="IT.TV.VISITDY" Mandatory="No" OrderNumber="5" Role="Timing"/>
                <ItemRef ItemOID="IT.TV.ARMCD" Mandatory="No" OrderNumber="6"
                    Role="Record Qualifier"/>
                <ItemRef ItemOID="IT.TV.ARM" Mandatory="No" OrderNumber="7" Role="Synonym Qualifier"/>
                <ItemRef ItemOID="IT.TV.TVSTRL" Mandatory="No" OrderNumber="8" Role="Rule"/>
                <ItemRef ItemOID="IT.TV.TVENRL" Mandatory="No" OrderNumber="9" Role="Rule"/>
                <def:Class Name="TRIAL DESIGN"/>
            </ItemGroupDef>
            <ItemGroupDef Domain="TD" Name="TD" OID="IGD.TD" Purpose="Tabulation" Repeating="No"
                def:Structure="One record per planned constant assessment period">
                <Description>
                    <TranslatedText xml:lang="en">Trial Disease Assessments</TranslatedText>
                </Description>
                <ItemRef ItemOID="IT.TD.STUDYID" Mandatory="No" OrderNumber="1" Role="Identifier"/>
                <ItemRef ItemOID="IT.TD.DOMAIN" Mandatory="No" OrderNumber="2" Role="Identifier"/>
                <ItemRef ItemOID="IT.TD.TDORDER" Mandatory="No" OrderNumber="3" Role="Timing"/>
                <ItemRef ItemOID="IT.TD.TDANCVAR" Mandatory="No" OrderNumber="4" Role="Timing"/>
                <ItemRef ItemOID="IT.TD.TDSTOFF" Mandatory="No" OrderNumber="5" Role="Timing"/>
                <ItemRef ItemOID="IT.TD.TDTGTPAI" Mandatory="No" OrderNumber="6" Role="Timing"/>
                <ItemRef ItemOID="IT.TD.TDMINPAI" Mandatory="No" OrderNumber="7" Role="Timing"/>
                <ItemRef ItemOID="IT.TD.TDMAXPAI" Mandatory="No" OrderNumber="8" Role="Timing"/>
                <ItemRef ItemOID="IT.TD.TDNUMRPT" Mandatory="No" OrderNumber="9"
                    Role="Record Qualifier"/>
                <def:Class Name="TRIAL DESIGN"/>
            </ItemGroupDef>
            <ItemGroupDef Domain="TI" Name="TI" OID="IGD.TI" Purpose="Tabulation" Repeating="No"
                def:Structure="One record per I/E criterion">
                <Description>
                    <TranslatedText xml:lang="en">Trial Inclusion/Exclusion
                        Criteria</TranslatedText>
                </Description>
                <ItemRef ItemOID="IT.TI.STUDYID" Mandatory="No" OrderNumber="1" Role="Identifier"/>
                <ItemRef ItemOID="IT.TI.DOMAIN" Mandatory="No" OrderNumber="2" Role="Identifier"/>
                <ItemRef ItemOID="IT.TI.IETESTCD" Mandatory="No" OrderNumber="3" Role="Topic"/>
                <ItemRef ItemOID="IT.TI.IETEST" Mandatory="No" OrderNumber="4"
                    Role="Synonym Qualifier"/>
                <ItemRef ItemOID="IT.TI.IECAT" Mandatory="No" OrderNumber="5"
                    Role="Grouping Qualifier"/>
                <ItemRef ItemOID="IT.TI.IESCAT" Mandatory="No" OrderNumber="6"
                    Role="Grouping Qualifier"/>
                <ItemRef ItemOID="IT.TI.TIRL" Mandatory="No" OrderNumber="7" Role="Rule"/>
                <ItemRef ItemOID="IT.TI.TIVERS" Mandatory="No" OrderNumber="8"
                    Role="Record Qualifier"/>
                <def:Class Name="TRIAL DESIGN"/>
            </ItemGroupDef>
            <ItemGroupDef Domain="TS" Name="TS" OID="IGD.TS" Purpose="Tabulation" Repeating="No"
                def:Structure="One record per trial summary parameter value">
                <Description>
                    <TranslatedText xml:lang="en">Trial Summary</TranslatedText>
                </Description>
                <ItemRef ItemOID="IT.TS.STUDYID" Mandatory="No" OrderNumber="1" Role="Identifier"/>
                <ItemRef ItemOID="IT.TS.DOMAIN" Mandatory="No" OrderNumber="2" Role="Identifier"/>
                <ItemRef ItemOID="IT.TS.TSSEQ" Mandatory="No" OrderNumber="3" Role="Identifier"/>
                <ItemRef ItemOID="IT.TS.TSGRPID" Mandatory="No" OrderNumber="4" Role="Identifier"/>
                <ItemRef ItemOID="IT.TS.TSPARMCD" Mandatory="No" OrderNumber="5" Role="Topic"/>
                <ItemRef ItemOID="IT.TS.TSPARM" Mandatory="No" OrderNumber="6"
                    Role="Synonym Qualifier"/>
                <ItemRef ItemOID="IT.TS.TSVAL" Mandatory="No" OrderNumber="7"
                    Role="Result Qualifier"/>
                <ItemRef ItemOID="IT.TS.TSVALNF" Mandatory="No" OrderNumber="8"
                    Role="Result Qualifier"/>
                <ItemRef ItemOID="IT.TS.TSVALCD" Mandatory="No" OrderNumber="9"
                    Role="Result Qualifier"/>
                <ItemRef ItemOID="IT.TS.TSVCDREF" Mandatory="No" OrderNumber="10"
                    Role="Result Qualifier"/>
                <ItemRef ItemOID="IT.TS.TSVCDVER" Mandatory="No" OrderNumber="11"
                    Role="Result Qualifier"/>
                <def:Class Name="TRIAL DESIGN"/>
            </ItemGroupDef>
            <ItemGroupDef Domain="RELREC" Name="RELREC" OID="IGD.RELREC" Purpose="Tabulation"
                Repeating="No"
                def:Structure="One record per related record, group of records or dataset">
                <Description>
                    <TranslatedText xml:lang="en">Related Records</TranslatedText>
                </Description>
                <ItemRef ItemOID="IT.RELREC.STUDYID" Mandatory="No" OrderNumber="1"/>
                <ItemRef ItemOID="IT.RELREC.RDOMAIN" Mandatory="No" OrderNumber="2"/>
                <ItemRef ItemOID="IT.RELREC.USUBJID" Mandatory="No" OrderNumber="3"/>
                <ItemRef ItemOID="IT.RELREC.IDVAR" Mandatory="No" OrderNumber="4"/>
                <ItemRef ItemOID="IT.RELREC.IDVARVAL" Mandatory="No" OrderNumber="5"/>
                <ItemRef ItemOID="IT.RELREC.RELTYPE" Mandatory="No" OrderNumber="6"/>
                <ItemRef ItemOID="IT.RELREC.RELID" Mandatory="No" OrderNumber="7"/>
                <def:Class Name="RELATIONSHIP"/>
            </ItemGroupDef>
            <ItemGroupDef Domain="SUPPQUAL" Name="SUPPQUAL" OID="IGD.SUPPQUAL" Purpose="Tabulation"
                Repeating="No"
                def:Structure="One record per IDVAR, IDVARVAL, and QNAM value per subject">
                <Description>
                    <TranslatedText xml:lang="en">Supplemental Qualifiers [DOMAIN
                        NAME]</TranslatedText>
                </Description>
                <ItemRef ItemOID="IT.SUPPQUAL.STUDYID" Mandatory="No" OrderNumber="1"/>
                <ItemRef ItemOID="IT.SUPPQUAL.RDOMAIN" Mandatory="No" OrderNumber="2"/>
                <ItemRef ItemOID="IT.SUPPQUAL.USUBJID" Mandatory="No" OrderNumber="3"/>
                <ItemRef ItemOID="IT.SUPPQUAL.IDVAR" Mandatory="No" OrderNumber="4"/>
                <ItemRef ItemOID="IT.SUPPQUAL.IDVARVAL" Mandatory="No" OrderNumber="5"/>
                <ItemRef ItemOID="IT.SUPPQUAL.QNAM" Mandatory="No" OrderNumber="6"/>
                <ItemRef ItemOID="IT.SUPPQUAL.QLABEL" Mandatory="No" OrderNumber="7"/>
                <ItemRef ItemOID="IT.SUPPQUAL.QVAL" Mandatory="No" OrderNumber="8"/>
                <ItemRef ItemOID="IT.SUPPQUAL.QORIG" Mandatory="No" OrderNumber="9"/>
                <ItemRef ItemOID="IT.SUPPQUAL.QEVAL" Mandatory="No" OrderNumber="10"/>
                <def:Class Name="RELATIONSHIP"/>
            </ItemGroupDef>
            <ItemDef DataType="text" Name="STUDYID" OID="IT.CO.STUDYID" mdr:Core="Req"
                mdr:SubmissionDataType="Char">
                <Description>
                    <TranslatedText xml:lang="en">Study Identifier</TranslatedText>
                </Description>
                <mdr:CDISCNotes>
                    <TranslatedText xml:lang="en">Unique identifier for a study.</TranslatedText>
                </mdr:CDISCNotes>
            </ItemDef>
            <ItemDef DataType="text" Name="DOMAIN" OID="IT.CO.DOMAIN" mdr:Core="Req"
                mdr:SubmissionDataType="Char">
                <Description>
                    <TranslatedText xml:lang="en">Domain Abbreviation</TranslatedText>
                </Description>
                <CodeListRef CodeListOID="CL.C66734.CO"/>
                <mdr:CDISCNotes>
                    <TranslatedText xml:lang="en">Two-character abbreviation for the
                        domain.</TranslatedText>
                </mdr:CDISCNotes>
            </ItemDef>
            <ItemDef DataType="text" Name="RDOMAIN" OID="IT.CO.RDOMAIN" mdr:Core="Perm"
                mdr:SubmissionDataType="Char">
                <Description>
                    <TranslatedText xml:lang="en">Related Domain Abbreviation</TranslatedText>
                </Description>
                <mdr:CDISCNotes>
                    <TranslatedText xml:lang="en">Two-character abbreviation for the domain of the
                        parent record(s). Null for comments collected on a general comments or
                        additional information CRF page.</TranslatedText>
                </mdr:CDISCNotes>
            </ItemDef>
            <ItemDef DataType="text" Name="USUBJID" OID="IT.CO.USUBJID" mdr:Core="Req"
                mdr:SubmissionDataType="Char">
                <Description>
                    <TranslatedText xml:lang="en">Unique Subject Identifier</TranslatedText>
                </Description>
                <mdr:CDISCNotes>
                    <TranslatedText xml:lang="en">Identifier used to uniquely identify a subject
                        across all studies for all applications or submissions involving the
                        product.</TranslatedText>
                </mdr:CDISCNotes>
            </ItemDef>
            <ItemDef DataType="double" Name="COSEQ" OID="IT.CO.COSEQ" mdr:Core="Req"
                mdr:SubmissionDataType="Num">
                <Description>
                    <TranslatedText xml:lang="en">Sequence Number</TranslatedText>
                </Description>
                <mdr:CDISCNotes>
                    <TranslatedText xml:lang="en">Sequence Number given to ensure uniqueness of
                        subject records within a domain. May be any valid number.</TranslatedText>
                </mdr:CDISCNotes>
            </ItemDef>
            <ItemDef DataType="text" Name="IDVAR" OID="IT.CO.IDVAR" mdr:Core="Perm"
                mdr:SubmissionDataType="Char">
                <Description>
                    <TranslatedText xml:lang="en">Identifying Variable</TranslatedText>
                </Description>
                <mdr:CDISCNotes>
                    <TranslatedText xml:lang="en">Identifying variable in the parent dataset that
                        identifies the record(s) to which the comment applies. Examples AESEQ or
                        CMGRPID. Used only when individual comments are related to domain records.
                        Null for comments collected on separate CRFs.</TranslatedText>
                </mdr:CDISCNotes>
            </ItemDef>
            <ItemDef DataType="text" Name="IDVARVAL" OID="IT.CO.IDVARVAL" mdr:Core="Perm"
                mdr:SubmissionDataType="Char">
                <Description>
                    <TranslatedText xml:lang="en">Identifying Variable Value</TranslatedText>
                </Description>
                <mdr:CDISCNotes>
                    <TranslatedText xml:lang="en">Value of identifying variable of the parent
                        record(s). Used only when individual comments are related to domain records.
                        Null for comments collected on separate CRFs.</TranslatedText>
                </mdr:CDISCNotes>
            </ItemDef>
            <ItemDef DataType="text" Name="COREF" OID="IT.CO.COREF" mdr:Core="Perm"
                mdr:SubmissionDataType="Char">
                <Description>
                    <TranslatedText xml:lang="en">Comment Reference</TranslatedText>
                </Description>
                <mdr:CDISCNotes>
                    <TranslatedText xml:lang="en">Sponsor-defined reference associated with the
                        comment. May be the CRF page number (e.g. 650), or a module name (e.g.
                        DEMOG), or a combination of information that identifies the reference (e.g.
                        650-VITALS-VISIT 2).</TranslatedText>
                </mdr:CDISCNotes>
            </ItemDef>
            <ItemDef DataType="text" Name="COVAL" OID="IT.CO.COVAL" mdr:Core="Req"
                mdr:SubmissionDataType="Char">
                <Description>
                    <TranslatedText xml:lang="en">Comment</TranslatedText>
                </Description>
                <mdr:CDISCNotes>
                    <TranslatedText xml:lang="en">The text of the comment. Text over 200 characters
                        can be added to additional columns COVAL1-COVALn. See Assumption
                        3.</TranslatedText>
                </mdr:CDISCNotes>
            </ItemDef>
            <ItemDef DataType="text" Name="COEVAL" OID="IT.CO.COEVAL" mdr:Core="Perm"
                mdr:SubmissionDataType="Char">
                <Description>
                    <TranslatedText xml:lang="en">Evaluator</TranslatedText>
                </Description>
                <mdr:CDISCNotes>
                    <TranslatedText xml:lang="en">Used to describe the originator of the comment.
                        Examples: CENTRAL, REVIEWER, ADJUDICATION COMMITTEE, PRINCIPAL
                        INVESTIGATOR.</TranslatedText>
                </mdr:CDISCNotes>
            </ItemDef>
            <ItemDef DataType="text" Name="CODTC" OID="IT.CO.CODTC" mdr:Core="Perm"
                mdr:SubmissionDataType="Char">
                <Description>
                    <TranslatedText xml:lang="en">Date/Time of Comment</TranslatedText>
                </Description>
                <mdr:CDISCNotes>
                    <TranslatedText xml:lang="en">Date/time of comment on dedicated comment form.
                        Should be null if this is a child record of another domain or if comment
                        date was not collected.</TranslatedText>
                </mdr:CDISCNotes>
            </ItemDef>
            <ItemDef DataType="text" Name="STUDYID" OID="IT.DM.STUDYID" mdr:Core="Req"
                mdr:SubmissionDataType="Char">
                <Description>
                    <TranslatedText xml:lang="en">Study Identifier</TranslatedText>
                </Description>
                <mdr:CDISCNotes>
                    <TranslatedText xml:lang="en">Unique identifier for a study.</TranslatedText>
                </mdr:CDISCNotes>
            </ItemDef>
            <ItemDef DataType="text" Name="DOMAIN" OID="IT.DM.DOMAIN" mdr:Core="Req"
                mdr:SubmissionDataType="Char">
                <Description>
                    <TranslatedText xml:lang="en">Domain Abbreviation</TranslatedText>
                </Description>
                <CodeListRef CodeListOID="CL.C66734.DM"/>
                <mdr:CDISCNotes>
                    <TranslatedText xml:lang="en">Two-character abbreviation for the
                        domain.</TranslatedText>
                </mdr:CDISCNotes>
            </ItemDef>
            <ItemDef DataType="text" Name="USUBJID" OID="IT.DM.USUBJID" mdr:Core="Req"
                mdr:SubmissionDataType="Char">
                <Description>
                    <TranslatedText xml:lang="en">Unique Subject Identifier</TranslatedText>
                </Description>
                <mdr:CDISCNotes>
                    <TranslatedText xml:lang="en">Identifier used to uniquely identify a subject
                        across all studies for all applications or submissions involving the
                        product. This must be a unique number, and could be a compound identifier
                        formed by concatenating STUDYID-SITEID-SUBJID.</TranslatedText>
                </mdr:CDISCNotes>
            </ItemDef>
            <ItemDef DataType="text" Name="SUBJID" OID="IT.DM.SUBJID" mdr:Core="Req"
                mdr:SubmissionDataType="Char">
                <Description>
                    <TranslatedText xml:lang="en">Subject Identifier for the Study</TranslatedText>
                </Description>
                <mdr:CDISCNotes>
                    <TranslatedText xml:lang="en">Subject identifier, which must be unique within
                        the study. Often the ID of the subject as recorded on a
                        CRF.</TranslatedText>
                </mdr:CDISCNotes>
            </ItemDef>
            <ItemDef DataType="text" Name="RFSTDTC" OID="IT.DM.RFSTDTC" mdr:Core="Exp"
                mdr:SubmissionDataType="Char">
                <Description>
                    <TranslatedText xml:lang="en">Subject Reference Start Date/Time</TranslatedText>
                </Description>
                <mdr:CDISCNotes>
                    <TranslatedText xml:lang="en">Reference Start Date/time for the subject in ISO
                        8601 character format. Usually equivalent to date/time when subject was
                        first exposed to study treatment. Required for all randomized subjects; will
                        be null for all subjects who did not meet the milestone the date requires,
                        such as screen failures or unassigned subjects.</TranslatedText>
                </mdr:CDISCNotes>
            </ItemDef>
            <ItemDef DataType="text" Name="RFENDTC" OID="IT.DM.RFENDTC" mdr:Core="Exp"
                mdr:SubmissionDataType="Char">
                <Description>
                    <TranslatedText xml:lang="en">Subject Reference End Date/Time</TranslatedText>
                </Description>
                <mdr:CDISCNotes>
                    <TranslatedText xml:lang="en">Reference End Date/time for the subject in ISO
                        8601 character format. Usually equivalent to the date/time when subject was
                        determined to have ended the trial, and often equivalent to date/time of
                        last exposure to study treatment. Required for all randomized subjects; null
                        for screen failures or unassigned subjects.</TranslatedText>
                </mdr:CDISCNotes>
            </ItemDef>
            <ItemDef DataType="text" Name="RFXSTDTC" OID="IT.DM.RFXSTDTC" mdr:Core="Exp"
                mdr:SubmissionDataType="Char">
                <Description>
                    <TranslatedText xml:lang="en">Date/Time of First Study
                        Treatment</TranslatedText>
                </Description>
                <mdr:CDISCNotes>
                    <TranslatedText xml:lang="en">First date of exposure to any protocol-specified
                        treatment or therapy, equal to the earliest value of
                        EXSTDTC.</TranslatedText>
                </mdr:CDISCNotes>
            </ItemDef>
            <ItemDef DataType="text" Name="RFXENDTC" OID="IT.DM.RFXENDTC" mdr:Core="Exp"
                mdr:SubmissionDataType="Char">
                <Description>
                    <TranslatedText xml:lang="en">Date/Time of Last Study Treatment</TranslatedText>
                </Description>
                <mdr:CDISCNotes>
                    <TranslatedText xml:lang="en">Last date of exposure to any protocol-specified
                        treatment or therapy, equal to the latest value of EXENDTC (or the latest
                        value of EXSTDTC if EXENDTC was not collected or is
                        missing).</TranslatedText>
                </mdr:CDISCNotes>
            </ItemDef>
            <ItemDef DataType="text" Name="RFICDTC" OID="IT.DM.RFICDTC" mdr:Core="Exp"
                mdr:SubmissionDataType="Char">
                <Description>
                    <TranslatedText xml:lang="en">Date/Time of Informed Consent</TranslatedText>
                </Description>
                <mdr:CDISCNotes>
                    <TranslatedText xml:lang="en">Date/time of informed consent in ISO 8601
                        character format. This will be the same as the date of informed consent in
                        the Disposition domain, if that protocol milestone is documented. Would be
                        null only in studies not collecting the date of informed
                        consent.</TranslatedText>
                </mdr:CDISCNotes>
            </ItemDef>
            <ItemDef DataType="text" Name="RFPENDTC" OID="IT.DM.RFPENDTC" mdr:Core="Exp"
                mdr:SubmissionDataType="Char">
                <Description>
                    <TranslatedText xml:lang="en">Date/Time of End of Participation</TranslatedText>
                </Description>
                <mdr:CDISCNotes>
                    <TranslatedText xml:lang="en">Date/time when subject ended participation or
                        follow-up in a trial, as defined in the protocol, in ISO 8601 character
                        format. Should correspond to the last known date of contact. Examples
                        include completion date, withdrawal date, last follow-up, date recorded for
                        lost to follow up, or death date.</TranslatedText>
                </mdr:CDISCNotes>
            </ItemDef>
            <ItemDef DataType="text" Name="DTHDTC" OID="IT.DM.DTHDTC" mdr:Core="Exp"
                mdr:SubmissionDataType="Char">
                <Description>
                    <TranslatedText xml:lang="en">Date/Time of Death</TranslatedText>
                </Description>
                <mdr:CDISCNotes>
                    <TranslatedText xml:lang="en">Date/time of death for any subject who died, in
                        ISO 8601 format. Should represent the date/time that is captured in the
                        clinical-trial database.</TranslatedText>
                </mdr:CDISCNotes>
            </ItemDef>
            <ItemDef DataType="text" Name="DTHFL" OID="IT.DM.DTHFL" mdr:Core="Exp"
                mdr:SubmissionDataType="Char">
                <Description>
                    <TranslatedText xml:lang="en">Subject Death Flag</TranslatedText>
                </Description>
                <CodeListRef CodeListOID="CL.C66742"/>
                <mdr:CDISCNotes>
                    <TranslatedText xml:lang="en">Indicates the subject died. Should be Y or null.
                        Should be populated even when the death date is unknown.</TranslatedText>
                </mdr:CDISCNotes>
            </ItemDef>
            <ItemDef DataType="text" Name="SITEID" OID="IT.DM.SITEID" mdr:Core="Req"
                mdr:SubmissionDataType="Char">
                <Description>
                    <TranslatedText xml:lang="en">Study Site Identifier</TranslatedText>
                </Description>
                <mdr:CDISCNotes>
                    <TranslatedText xml:lang="en">Unique identifier for a site within a
                        study.</TranslatedText>
                </mdr:CDISCNotes>
            </ItemDef>
            <ItemDef DataType="text" Name="INVID" OID="IT.DM.INVID" mdr:Core="Perm"
                mdr:SubmissionDataType="Char">
                <Description>
                    <TranslatedText xml:lang="en">Investigator Identifier</TranslatedText>
                </Description>
                <mdr:CDISCNotes>
                    <TranslatedText xml:lang="en">An identifier to describe the Investigator for the
                        study. May be used in addition to SITEID. Not needed if SITEID is equivalent
                        to INVID.</TranslatedText>
                </mdr:CDISCNotes>
            </ItemDef>
            <ItemDef DataType="text" Name="INVNAM" OID="IT.DM.INVNAM" mdr:Core="Perm"
                mdr:SubmissionDataType="Char">
                <Description>
                    <TranslatedText xml:lang="en">Investigator Name</TranslatedText>
                </Description>
                <mdr:CDISCNotes>
                    <TranslatedText xml:lang="en">Name of the investigator for a
                        site.</TranslatedText>
                </mdr:CDISCNotes>
            </ItemDef>
            <ItemDef DataType="text" Name="BRTHDTC" OID="IT.DM.BRTHDTC" mdr:Core="Perm"
                mdr:SubmissionDataType="Char">
                <Description>
                    <TranslatedText xml:lang="en">Date/Time of Birth</TranslatedText>
                </Description>
                <mdr:CDISCNotes>
                    <TranslatedText xml:lang="en">Date/time of birth of the
                        subject.</TranslatedText>
                </mdr:CDISCNotes>
            </ItemDef>
            <ItemDef DataType="double" Name="AGE" OID="IT.DM.AGE" mdr:Core="Exp"
                mdr:SubmissionDataType="Num">
                <Description>
                    <TranslatedText xml:lang="en">Age</TranslatedText>
                </Description>
                <mdr:CDISCNotes>
                    <TranslatedText xml:lang="en">Age expressed in AGEU. May be derived from RFSTDTC
                        and BRTHDTC, but BRTHDTC may not be available in all cases (due to subject
                        privacy concerns).</TranslatedText>
                </mdr:CDISCNotes>
            </ItemDef>
            <ItemDef DataType="text" Name="AGEU" OID="IT.DM.AGEU" mdr:Core="Exp"
                mdr:SubmissionDataType="Char">
                <Description>
                    <TranslatedText xml:lang="en">Age Units</TranslatedText>
                </Description>
                <CodeListRef CodeListOID="CL.C66781"/>
                <mdr:CDISCNotes>
                    <TranslatedText xml:lang="en">Units associated with AGE.</TranslatedText>
                </mdr:CDISCNotes>
            </ItemDef>
            <ItemDef DataType="text" Name="SEX" OID="IT.DM.SEX" mdr:Core="Req"
                mdr:SubmissionDataType="Char">
                <Description>
                    <TranslatedText xml:lang="en">Sex</TranslatedText>
                </Description>
                <CodeListRef CodeListOID="CL.C66731"/>
                <mdr:CDISCNotes>
                    <TranslatedText xml:lang="en">Sex of the subject.</TranslatedText>
                </mdr:CDISCNotes>
            </ItemDef>
            <ItemDef DataType="text" Name="RACE" OID="IT.DM.RACE" mdr:Core="Exp"
                mdr:SubmissionDataType="Char">
                <Description>
                    <TranslatedText xml:lang="en">Race</TranslatedText>
                </Description>
                <CodeListRef CodeListOID="CL.C74457"/>
                <mdr:CDISCNotes>
                    <TranslatedText xml:lang="en">Race of the subject. Sponsors should refer to
                        "Collection of Race and Ethnicity Data in Clinical Trials" (FDA, September
                        2005) for guidance regarding the collection of race
                        (http://www.fda.gov/RegulatoryInformation/Guidances/ucm126340.htm) See
                        Assumption below regarding RACE.</TranslatedText>
                </mdr:CDISCNotes>
            </ItemDef>
            <ItemDef DataType="text" Name="ETHNIC" OID="IT.DM.ETHNIC" mdr:Core="Perm"
                mdr:SubmissionDataType="Char">
                <Description>
                    <TranslatedText xml:lang="en">Ethnicity</TranslatedText>
                </Description>
                <CodeListRef CodeListOID="CL.C66790"/>
                <mdr:CDISCNotes>
                    <TranslatedText xml:lang="en">The ethnicity of the subject. Sponsors should
                        refer to "Collection of Race and Ethnicity Data in Clinical Trials" (FDA,
                        September 2005) for guidance regarding the collection of ethnicity
                        (http://www.fda.gov/RegulatoryInformation/Guidances/ucm126340.htm).</TranslatedText>
                </mdr:CDISCNotes>
            </ItemDef>
            <ItemDef DataType="text" Name="ARMCD" OID="IT.DM.ARMCD" mdr:Core="Req"
                mdr:SubmissionDataType="Char">
                <Description>
                    <TranslatedText xml:lang="en">Planned Arm Code</TranslatedText>
                </Description>
                <mdr:CDISCNotes>
                    <TranslatedText xml:lang="en">ARMCD is limited to 20 characters and does not
                        have special character restrictions. The maximum length of ARMCD is longer
                        than for other "short" variables to accommodate the kind of values that are
                        likely to be needed for crossover trials. For example, if ARMCD values for a
                        seven-period crossover were constructed using two-character abbreviations
                        for each treatment and separating hyphens, the length of ARMCD values would
                        be 20.</TranslatedText>
                </mdr:CDISCNotes>
            </ItemDef>
            <ItemDef DataType="text" Name="ARM" OID="IT.DM.ARM" mdr:Core="Req"
                mdr:SubmissionDataType="Char">
                <Description>
                    <TranslatedText xml:lang="en">Description of Planned Arm</TranslatedText>
                </Description>
                <mdr:CDISCNotes>
                    <TranslatedText xml:lang="en">Name of the Arm to which the subject was
                        assigned.</TranslatedText>
                </mdr:CDISCNotes>
            </ItemDef>
            <ItemDef DataType="text" Name="ACTARMCD" OID="IT.DM.ACTARMCD" mdr:Core="Req"
                mdr:SubmissionDataType="Char">
                <Description>
                    <TranslatedText xml:lang="en">Actual Arm Code</TranslatedText>
                </Description>
                <mdr:CDISCNotes>
                    <TranslatedText xml:lang="en">Code of actual Arm. When an Arm is not planned
                        (not in Trial Arms), ACTARMCD will be UNPLAN. Randomized subjects who were
                        not treated will be given a value of NOTTRT. Values should be "SCRNFAIL" for
                        screen failures and "NOTASSGN" for subjects not assigned to treatment.
                        Restricted to values in Trial Arms in all other cases. ACTARMCD is limited
                        to 20 characters and does not have special character restrictions. The
                        maximum length of ACTARMCD is longer than for other short variables to
                        accommodate the kind of values that are likely to be needed for crossover
                        trials.</TranslatedText>
                </mdr:CDISCNotes>
            </ItemDef>
            <ItemDef DataType="text" Name="ACTARM" OID="IT.DM.ACTARM" mdr:Core="Req"
                mdr:SubmissionDataType="Char">
                <Description>
                    <TranslatedText xml:lang="en">Description of Actual Arm</TranslatedText>
                </Description>
                <mdr:CDISCNotes>
                    <TranslatedText xml:lang="en">Description of actual Arm. When an Arm is not
                        planned (not in Trial Arms), ACTARM will be "Unplanned Treatment".
                        Randomized subjects who were not treated will be given a value of "Not
                        Treated". Values should be "Screen Failure" for screen failures and "Not
                        Assigned" for subjects not assigned to treatment. Restricted to values in
                        Trial Arms in all other cases.</TranslatedText>
                </mdr:CDISCNotes>
            </ItemDef>
            <ItemDef DataType="text" Name="COUNTRY" OID="IT.DM.COUNTRY" mdr:Core="Req"
                mdr:SubmissionDataType="Char">
                <Description>
                    <TranslatedText xml:lang="en">Country</TranslatedText>
                </Description>
                <mdr:CDISCNotes>
                    <TranslatedText xml:lang="en">Country of the investigational site in which the
                        subject participated in the trial.</TranslatedText>
                </mdr:CDISCNotes>
            </ItemDef>
            <ItemDef DataType="text" Name="DMDTC" OID="IT.DM.DMDTC" mdr:Core="Perm"
                mdr:SubmissionDataType="Char">
                <Description>
                    <TranslatedText xml:lang="en">Date/Time of Collection</TranslatedText>
                </Description>
                <mdr:CDISCNotes>
                    <TranslatedText xml:lang="en">Date/time of demographic data
                        collection.</TranslatedText>
                </mdr:CDISCNotes>
            </ItemDef>
            <ItemDef DataType="double" Name="DMDY" OID="IT.DM.DMDY" mdr:Core="Perm"
                mdr:SubmissionDataType="Num">
                <Description>
                    <TranslatedText xml:lang="en">Study Day of Collection</TranslatedText>
                </Description>
                <mdr:CDISCNotes>
                    <TranslatedText xml:lang="en">Study day of collection measured as integer
                        days.</TranslatedText>
                </mdr:CDISCNotes>
            </ItemDef>
            <ItemDef DataType="text" Name="STUDYID" OID="IT.SE.STUDYID" mdr:Core="Req"
                mdr:SubmissionDataType="Char">
                <Description>
                    <TranslatedText xml:lang="en">Study Identifier</TranslatedText>
                </Description>
                <mdr:CDISCNotes>
                    <TranslatedText xml:lang="en">Unique identifier for a study.</TranslatedText>
                </mdr:CDISCNotes>
            </ItemDef>
            <ItemDef DataType="text" Name="DOMAIN" OID="IT.SE.DOMAIN" mdr:Core="Req"
                mdr:SubmissionDataType="Char">
                <Description>
                    <TranslatedText xml:lang="en">Domain Abbreviation</TranslatedText>
                </Description>
                <CodeListRef CodeListOID="CL.C66734.SE"/>
                <mdr:CDISCNotes>
                    <TranslatedText xml:lang="en">Two-character abbreviation for the
                        domain.</TranslatedText>
                </mdr:CDISCNotes>
            </ItemDef>
            <ItemDef DataType="text" Name="USUBJID" OID="IT.SE.USUBJID" mdr:Core="Req"
                mdr:SubmissionDataType="Char">
                <Description>
                    <TranslatedText xml:lang="en">Unique Subject Identifier</TranslatedText>
                </Description>
                <mdr:CDISCNotes>
                    <TranslatedText xml:lang="en">Identifier used to uniquely identify a subject
                        across all studies for all applications or submissions involving the
                        product.</TranslatedText>
                </mdr:CDISCNotes>
            </ItemDef>
            <ItemDef DataType="double" Name="SESEQ" OID="IT.SE.SESEQ" mdr:Core="Req"
                mdr:SubmissionDataType="Num">
                <Description>
                    <TranslatedText xml:lang="en">Sequence Number</TranslatedText>
                </Description>
                <mdr:CDISCNotes>
                    <TranslatedText xml:lang="en">Sequence Number given to ensure uniqueness of
                        subject records within a domain. Should be assigned to be consistent
                        chronological order.</TranslatedText>
                </mdr:CDISCNotes>
            </ItemDef>
            <ItemDef DataType="text" Name="ETCD" OID="IT.SE.ETCD" mdr:Core="Req"
                mdr:SubmissionDataType="Char">
                <Description>
                    <TranslatedText xml:lang="en">Element Code</TranslatedText>
                </Description>
                <mdr:CDISCNotes>
                    <TranslatedText xml:lang="en">1. ETCD (the companion to ELEMENT) is limited to 8
                        characters and does not have special character restrictions. These values
                        should be short for ease of use in programming, but it is not expected that
                        ETCD will need to serve as a variable name. 2. If an encountered Element
                        differs from the planned Element to the point that it is considered a new
                        Element, then use "UNPLAN" as the value for ETCD to represent this
                        Element.</TranslatedText>
                </mdr:CDISCNotes>
            </ItemDef>
            <ItemDef DataType="text" Name="ELEMENT" OID="IT.SE.ELEMENT" mdr:Core="Perm"
                mdr:SubmissionDataType="Char">
                <Description>
                    <TranslatedText xml:lang="en">Description of Element</TranslatedText>
                </Description>
                <mdr:CDISCNotes>
                    <TranslatedText xml:lang="en">The name of the Element. If ETCD has a value of
                        "UNPLAN" then ELEMENT should be Null.</TranslatedText>
                </mdr:CDISCNotes>
            </ItemDef>
            <ItemDef DataType="text" Name="SESTDTC" OID="IT.SE.SESTDTC" mdr:Core="Req"
                mdr:SubmissionDataType="Char">
                <Description>
                    <TranslatedText xml:lang="en">Start Date/Time of Element</TranslatedText>
                </Description>
                <mdr:CDISCNotes>
                    <TranslatedText xml:lang="en">Start date/time for an Element for each
                        subject.</TranslatedText>
                </mdr:CDISCNotes>
            </ItemDef>
            <ItemDef DataType="text" Name="SEENDTC" OID="IT.SE.SEENDTC" mdr:Core="Exp"
                mdr:SubmissionDataType="Char">
                <Description>
                    <TranslatedText xml:lang="en">End Date/Time of Element</TranslatedText>
                </Description>
                <mdr:CDISCNotes>
                    <TranslatedText xml:lang="en">End date/time for an Element for each
                        subject.</TranslatedText>
                </mdr:CDISCNotes>
            </ItemDef>
            <ItemDef DataType="double" Name="TAETORD" OID="IT.SE.TAETORD" mdr:Core="Perm"
                mdr:SubmissionDataType="Num">
                <Description>
                    <TranslatedText xml:lang="en">Planned Order of Element within
                        Arm</TranslatedText>
                </Description>
                <mdr:CDISCNotes>
                    <TranslatedText xml:lang="en">Number that gives the planned order of the Element
                        within the subject's assigned ARM.</TranslatedText>
                </mdr:CDISCNotes>
            </ItemDef>
            <ItemDef DataType="text" Name="EPOCH" OID="IT.SE.EPOCH" mdr:Core="Perm"
                mdr:SubmissionDataType="Char">
                <Description>
                    <TranslatedText xml:lang="en">Epoch</TranslatedText>
                </Description>
                <CodeListRef CodeListOID="CL.C99079"/>
                <mdr:CDISCNotes>
                    <TranslatedText xml:lang="en">Epoch associated with the Element in the planned
                        sequence of Elements for the ARM to which the subject was
                        assigned</TranslatedText>
                </mdr:CDISCNotes>
            </ItemDef>
            <ItemDef DataType="text" Name="SEUPDES" OID="IT.SE.SEUPDES" mdr:Core="Perm"
                mdr:SubmissionDataType="Char">
                <Description>
                    <TranslatedText xml:lang="en">Description of Unplanned Element</TranslatedText>
                </Description>
                <mdr:CDISCNotes>
                    <TranslatedText xml:lang="en">Description of what happened to the subject during
                        this unplanned Element. Used only if ETCD has the value of
                        "UNPLAN".</TranslatedText>
                </mdr:CDISCNotes>
            </ItemDef>
            <ItemDef DataType="text" Name="STUDYID" OID="IT.SV.STUDYID" mdr:Core="Req"
                mdr:SubmissionDataType="Char">
                <Description>
                    <TranslatedText xml:lang="en">Study Identifier</TranslatedText>
                </Description>
                <mdr:CDISCNotes>
                    <TranslatedText xml:lang="en">Unique identifier for a study.</TranslatedText>
                </mdr:CDISCNotes>
            </ItemDef>
            <ItemDef DataType="text" Name="DOMAIN" OID="IT.SV.DOMAIN" mdr:Core="Req"
                mdr:SubmissionDataType="Char">
                <Description>
                    <TranslatedText xml:lang="en">Domain Abbreviation</TranslatedText>
                </Description>
                <CodeListRef CodeListOID="CL.C66734.SV"/>
                <mdr:CDISCNotes>
                    <TranslatedText xml:lang="en">Two-character abbreviation for the
                        domain.</TranslatedText>
                </mdr:CDISCNotes>
            </ItemDef>
            <ItemDef DataType="text" Name="USUBJID" OID="IT.SV.USUBJID" mdr:Core="Req"
                mdr:SubmissionDataType="Char">
                <Description>
                    <TranslatedText xml:lang="en">Unique Subject Identifier</TranslatedText>
                </Description>
                <mdr:CDISCNotes>
                    <TranslatedText xml:lang="en">Identifier used to uniquely identify a subject
                        across all studies for all applications or submissions involving the
                        product.</TranslatedText>
                </mdr:CDISCNotes>
            </ItemDef>
            <ItemDef DataType="double" Name="VISITNUM" OID="IT.SV.VISITNUM" mdr:Core="Req"
                mdr:SubmissionDataType="Num">
                <Description>
                    <TranslatedText xml:lang="en">Visit Number</TranslatedText>
                </Description>
                <mdr:CDISCNotes>
                    <TranslatedText xml:lang="en">1. Clinical encounter number. (Decimal numbering
                        may be useful for inserting unplanned visits.) 2. Numeric version of VISIT,
                        used for sorting.</TranslatedText>
                </mdr:CDISCNotes>
            </ItemDef>
            <ItemDef DataType="text" Name="VISIT" OID="IT.SV.VISIT" mdr:Core="Perm"
                mdr:SubmissionDataType="Char">
                <Description>
                    <TranslatedText xml:lang="en">Visit Name</TranslatedText>
                </Description>
                <mdr:CDISCNotes>
                    <TranslatedText xml:lang="en">1. Protocol-defined description of clinical
                        encounter. 2. May be used in addition to VISITNUM and/or VISITDY as a text
                        description of the clinical encounter.</TranslatedText>
                </mdr:CDISCNotes>
            </ItemDef>
            <ItemDef DataType="double" Name="VISITDY" OID="IT.SV.VISITDY" mdr:Core="Perm"
                mdr:SubmissionDataType="Num">
                <Description>
                    <TranslatedText xml:lang="en">Planned Study Day of Visit</TranslatedText>
                </Description>
                <mdr:CDISCNotes>
                    <TranslatedText xml:lang="en">Planned study day of the start of the visit based
                        upon RFSTDTC in Demographics.</TranslatedText>
                </mdr:CDISCNotes>
            </ItemDef>
            <ItemDef DataType="text" Name="SVSTDTC" OID="IT.SV.SVSTDTC" mdr:Core="Exp"
                mdr:SubmissionDataType="Char">
                <Description>
                    <TranslatedText xml:lang="en">Start Date/Time of Visit</TranslatedText>
                </Description>
                <mdr:CDISCNotes>
                    <TranslatedText xml:lang="en">Start date/time for a Visit.</TranslatedText>
                </mdr:CDISCNotes>
            </ItemDef>
            <ItemDef DataType="text" Name="SVENDTC" OID="IT.SV.SVENDTC" mdr:Core="Exp"
                mdr:SubmissionDataType="Char">
                <Description>
                    <TranslatedText xml:lang="en">End Date/Time of Visit</TranslatedText>
                </Description>
                <mdr:CDISCNotes>
                    <TranslatedText xml:lang="en">End date/time of a Visit.</TranslatedText>
                </mdr:CDISCNotes>
            </ItemDef>
            <ItemDef DataType="double" Name="SVSTDY" OID="IT.SV.SVSTDY" mdr:Core="Perm"
                mdr:SubmissionDataType="Num">
                <Description>
                    <TranslatedText xml:lang="en">Study Day of Start of Visit</TranslatedText>
                </Description>
                <mdr:CDISCNotes>
                    <TranslatedText xml:lang="en">Study day of start of visit relative to the
                        sponsor-defined RFSTDTC.</TranslatedText>
                </mdr:CDISCNotes>
            </ItemDef>
            <ItemDef DataType="double" Name="SVENDY" OID="IT.SV.SVENDY" mdr:Core="Perm"
                mdr:SubmissionDataType="Num">
                <Description>
                    <TranslatedText xml:lang="en">Study Day of End of Visit</TranslatedText>
                </Description>
                <mdr:CDISCNotes>
                    <TranslatedText xml:lang="en">Study day of end of visit relative to the
                        sponsor-defined RFSTDTC.</TranslatedText>
                </mdr:CDISCNotes>
            </ItemDef>
            <ItemDef DataType="text" Name="SVUPDES" OID="IT.SV.SVUPDES" mdr:Core="Perm"
                mdr:SubmissionDataType="Char">
                <Description>
                    <TranslatedText xml:lang="en">Description of Unplanned Visit</TranslatedText>
                </Description>
                <mdr:CDISCNotes>
                    <TranslatedText xml:lang="en">Description of what happened to the subject during
                        an unplanned visit.</TranslatedText>
                </mdr:CDISCNotes>
            </ItemDef>
            <ItemDef DataType="text" Name="STUDYID" OID="IT.CM.STUDYID" mdr:Core="Req"
                mdr:SubmissionDataType="Char">
                <Description>
                    <TranslatedText xml:lang="en">Study Identifier</TranslatedText>
                </Description>
                <mdr:CDISCNotes>
                    <TranslatedText xml:lang="en">Unique identifier for a study.</TranslatedText>
                </mdr:CDISCNotes>
            </ItemDef>
            <ItemDef DataType="text" Name="DOMAIN" OID="IT.CM.DOMAIN" mdr:Core="Req"
                mdr:SubmissionDataType="Char">
                <Description>
                    <TranslatedText xml:lang="en">Domain Abbreviation</TranslatedText>
                </Description>
                <CodeListRef CodeListOID="CL.C66734.CM"/>
                <mdr:CDISCNotes>
                    <TranslatedText xml:lang="en">Two-character abbreviation for the
                        domain.</TranslatedText>
                </mdr:CDISCNotes>
            </ItemDef>
            <ItemDef DataType="text" Name="USUBJID" OID="IT.CM.USUBJID" mdr:Core="Req"
                mdr:SubmissionDataType="Char">
                <Description>
                    <TranslatedText xml:lang="en">Unique Subject Identifier</TranslatedText>
                </Description>
                <mdr:CDISCNotes>
                    <TranslatedText xml:lang="en">Identifier used to uniquely identify a subject
                        across all studies for all applications or submissions involving the
                        product.</TranslatedText>
                </mdr:CDISCNotes>
            </ItemDef>
            <ItemDef DataType="double" Name="CMSEQ" OID="IT.CM.CMSEQ" mdr:Core="Req"
                mdr:SubmissionDataType="Num">
                <Description>
                    <TranslatedText xml:lang="en">Sequence Number</TranslatedText>
                </Description>
                <mdr:CDISCNotes>
                    <TranslatedText xml:lang="en">Sequence Number given to ensure uniqueness of
                        subject records within a domain. May be any valid number.</TranslatedText>
                </mdr:CDISCNotes>
            </ItemDef>
            <ItemDef DataType="text" Name="CMGRPID" OID="IT.CM.CMGRPID" mdr:Core="Perm"
                mdr:SubmissionDataType="Char">
                <Description>
                    <TranslatedText xml:lang="en">Group ID</TranslatedText>
                </Description>
                <mdr:CDISCNotes>
                    <TranslatedText xml:lang="en">Used to tie together a block of related records in
                        a single domain for a subject.</TranslatedText>
                </mdr:CDISCNotes>
            </ItemDef>
            <ItemDef DataType="text" Name="CMSPID" OID="IT.CM.CMSPID" mdr:Core="Perm"
                mdr:SubmissionDataType="Char">
                <Description>
                    <TranslatedText xml:lang="en">Sponsor-Defined Identifier</TranslatedText>
                </Description>
                <mdr:CDISCNotes>
                    <TranslatedText xml:lang="en">Sponsor-defined reference number. Examples: a
                        number pre-printed on the CRF as an explicit line identifier or record
                        identifier defined in the sponsor's operational database. Example: line
                        number on a concomitant medication page.</TranslatedText>
                </mdr:CDISCNotes>
            </ItemDef>
            <ItemDef DataType="text" Name="CMTRT" OID="IT.CM.CMTRT" mdr:Core="Req"
                mdr:SubmissionDataType="Char">
                <Description>
                    <TranslatedText xml:lang="en">Reported Name of Drug, Med, or
                        Therapy</TranslatedText>
                </Description>
                <mdr:CDISCNotes>
                    <TranslatedText xml:lang="en">Verbatim medication name that is either
                        pre-printed or collected on a CRF.</TranslatedText>
                </mdr:CDISCNotes>
            </ItemDef>
            <ItemDef DataType="text" Name="CMMODIFY" OID="IT.CM.CMMODIFY" mdr:Core="Perm"
                mdr:SubmissionDataType="Char">
                <Description>
                    <TranslatedText xml:lang="en">Modified Reported Name</TranslatedText>
                </Description>
                <mdr:CDISCNotes>
                    <TranslatedText xml:lang="en">If CMTRT is modified to facilitate coding, then
                        CMMODIFY will contain the modified text.</TranslatedText>
                </mdr:CDISCNotes>
            </ItemDef>
            <ItemDef DataType="text" Name="CMDECOD" OID="IT.CM.CMDECOD" mdr:Core="Perm"
                mdr:SubmissionDataType="Char">
                <Description>
                    <TranslatedText xml:lang="en">Standardized Medication Name</TranslatedText>
                </Description>
                <mdr:CDISCNotes>
                    <TranslatedText xml:lang="en">Standardized or dictionary-derived text
                        description of CMTRT or CMMODIFY. Equivalent to the generic medication name
                        in WHO Drug. The sponsor is expected to provide the dictionary name and
                        version used to map the terms utilizing the define.xml external codelist
                        attributes. If an intervention term does not have a decode value in the
                        dictionary then CMDECOD will be left blank.</TranslatedText>
                </mdr:CDISCNotes>
            </ItemDef>
            <ItemDef DataType="text" Name="CMCAT" OID="IT.CM.CMCAT" mdr:Core="Perm"
                mdr:SubmissionDataType="Char">
                <Description>
                    <TranslatedText xml:lang="en">Category for Medication</TranslatedText>
                </Description>
                <mdr:CDISCNotes>
                    <TranslatedText xml:lang="en">Used to define a category of
                        medications/treatments. Examples: PRIOR, CONCOMITANT, ANTI-CANCER
                        MEDICATION, or GENERAL CONMED.</TranslatedText>
                </mdr:CDISCNotes>
            </ItemDef>
            <ItemDef DataType="text" Name="CMSCAT" OID="IT.CM.CMSCAT" mdr:Core="Perm"
                mdr:SubmissionDataType="Char">
                <Description>
                    <TranslatedText xml:lang="en">Subcategory for Medication</TranslatedText>
                </Description>
                <mdr:CDISCNotes>
                    <TranslatedText xml:lang="en">A further categorization of medications/
                        treatment. Examples: CHEMOTHERAPY, HORMONAL THERAPY, ALTERNATIVE
                        THERAPY.</TranslatedText>
                </mdr:CDISCNotes>
            </ItemDef>
            <ItemDef DataType="text" Name="CMPRESP" OID="IT.CM.CMPRESP" mdr:Core="Perm"
                mdr:SubmissionDataType="Char">
                <Description>
                    <TranslatedText xml:lang="en">CM Pre-Specified</TranslatedText>
                </Description>
                <CodeListRef CodeListOID="CL.C66742"/>
                <mdr:CDISCNotes>
                    <TranslatedText xml:lang="en">Used to indicate whether (Y/null) information
                        about the use of a specific medication was solicited on the
                        CRF.</TranslatedText>
                </mdr:CDISCNotes>
            </ItemDef>
            <ItemDef DataType="text" Name="CMOCCUR" OID="IT.CM.CMOCCUR" mdr:Core="Perm"
                mdr:SubmissionDataType="Char">
                <Description>
                    <TranslatedText xml:lang="en">CM Occurrence</TranslatedText>
                </Description>
                <CodeListRef CodeListOID="CL.C66742"/>
                <mdr:CDISCNotes>
                    <TranslatedText xml:lang="en">When the use of specific medications is solicited,
                        CMOCCUR is used to indicate whether or not (Y/N) use of the medication
                        occurred. Values are null for medications not specifically
                        solicited.</TranslatedText>
                </mdr:CDISCNotes>
            </ItemDef>
            <ItemDef DataType="text" Name="CMSTAT" OID="IT.CM.CMSTAT" mdr:Core="Perm"
                mdr:SubmissionDataType="Char">
                <Description>
                    <TranslatedText xml:lang="en">Completion Status</TranslatedText>
                </Description>
                <CodeListRef CodeListOID="CL.C66789"/>
                <mdr:CDISCNotes>
                    <TranslatedText xml:lang="en">Used to indicate that a question about a
                        pre-specified medication was not answered. Should be null or have a value of
                        NOT DONE.</TranslatedText>
                </mdr:CDISCNotes>
            </ItemDef>
            <ItemDef DataType="text" Name="CMREASND" OID="IT.CM.CMREASND" mdr:Core="Perm"
                mdr:SubmissionDataType="Char">
                <Description>
                    <TranslatedText xml:lang="en">Reason Medication Not Collected</TranslatedText>
                </Description>
                <mdr:CDISCNotes>
                    <TranslatedText xml:lang="en">Describes the reason concomitant medication was
                        not collected. Used in conjunction with CMSTAT when value is NOT
                        DONE.</TranslatedText>
                </mdr:CDISCNotes>
            </ItemDef>
            <ItemDef DataType="text" Name="CMINDC" OID="IT.CM.CMINDC" mdr:Core="Perm"
                mdr:SubmissionDataType="Char">
                <Description>
                    <TranslatedText xml:lang="en">Indication</TranslatedText>
                </Description>
                <mdr:CDISCNotes>
                    <TranslatedText xml:lang="en">Denotes why a medication was taken or
                        administered. Examples: NAUSEA, HYPERTENSION.</TranslatedText>
                </mdr:CDISCNotes>
            </ItemDef>
            <ItemDef DataType="text" Name="CMCLAS" OID="IT.CM.CMCLAS" mdr:Core="Perm"
                mdr:SubmissionDataType="Char">
                <Description>
                    <TranslatedText xml:lang="en">Medication Class</TranslatedText>
                </Description>
                <mdr:CDISCNotes>
                    <TranslatedText xml:lang="en">Drug class. May be obtained from coding. When
                        coding to a single class, populate with class value. If using a dictionary
                        and coding to multiple classes, then follow Section 4: 4.1.2.8.3, Multiple
                        Values For A Non-Result Qualifier Variable or omit CMCLAS.</TranslatedText>
                </mdr:CDISCNotes>
            </ItemDef>
            <ItemDef DataType="text" Name="CMCLASCD" OID="IT.CM.CMCLASCD" mdr:Core="Perm"
                mdr:SubmissionDataType="Char">
                <Description>
                    <TranslatedText xml:lang="en">Medication Class Code</TranslatedText>
                </Description>
                <mdr:CDISCNotes>
                    <TranslatedText xml:lang="en">Class code corresponding to CMCLAS. Drug class.
                        May be obtained from coding. When coding to a single class, populate with
                        class code. If using a dictionary and coding to multiple classes, then
                        follow Section 4: 4.1.2.8.3, Multiple Values For A Non-Result Qualifier
                        Variable or omit CMCLASCD.</TranslatedText>
                </mdr:CDISCNotes>
            </ItemDef>
            <ItemDef DataType="double" Name="CMDOSE" OID="IT.CM.CMDOSE" mdr:Core="Perm"
                mdr:SubmissionDataType="Num">
                <Description>
                    <TranslatedText xml:lang="en">Dose per Administration</TranslatedText>
                </Description>
                <mdr:CDISCNotes>
                    <TranslatedText xml:lang="en">Amount of CMTRT taken. Not populated when CMDOSTXT
                        is populated.</TranslatedText>
                </mdr:CDISCNotes>
            </ItemDef>
            <ItemDef DataType="text" Name="CMDOSTXT" OID="IT.CM.CMDOSTXT" mdr:Core="Perm"
                mdr:SubmissionDataType="Char">
                <Description>
                    <TranslatedText xml:lang="en">Dose Description</TranslatedText>
                </Description>
                <mdr:CDISCNotes>
                    <TranslatedText xml:lang="en">Dosing amounts or a range of dosing information
                        collected in text form. Units may be stored in CMDOSU. Example: 200-400,
                        15-20. Not populated when CMDOSE is populated.</TranslatedText>
                </mdr:CDISCNotes>
            </ItemDef>
            <ItemDef DataType="text" Name="CMDOSU" OID="IT.CM.CMDOSU" mdr:Core="Perm"
                mdr:SubmissionDataType="Char">
                <Description>
                    <TranslatedText xml:lang="en">Dose Units</TranslatedText>
                </Description>
                <CodeListRef CodeListOID="CL.C71620"/>
                <mdr:CDISCNotes>
                    <TranslatedText xml:lang="en">Units for CMDOSE, CMDOSTOT, and CMDOSTXT.
                        Examples: ng, mg, or mg/kg.</TranslatedText>
                </mdr:CDISCNotes>
            </ItemDef>
            <ItemDef DataType="text" Name="CMDOSFRM" OID="IT.CM.CMDOSFRM" mdr:Core="Perm"
                mdr:SubmissionDataType="Char">
                <Description>
                    <TranslatedText xml:lang="en">Dose Form</TranslatedText>
                </Description>
                <CodeListRef CodeListOID="CL.C66726"/>
                <mdr:CDISCNotes>
                    <TranslatedText xml:lang="en">Dose form for CMTRT. Examples: TABLET,
                        LOTION.</TranslatedText>
                </mdr:CDISCNotes>
            </ItemDef>
            <ItemDef DataType="text" Name="CMDOSFRQ" OID="IT.CM.CMDOSFRQ" mdr:Core="Perm"
                mdr:SubmissionDataType="Char">
                <Description>
                    <TranslatedText xml:lang="en">Dosing Frequency per Interval</TranslatedText>
                </Description>
                <CodeListRef CodeListOID="CL.C71113"/>
                <mdr:CDISCNotes>
