<?xml version='1.0' encoding='utf8'?>
<ODM AsOfDateTime="2021-03-31T00:00:00+00:00" CreationDateTime="2021-06-17T15:33:20.852917+00:00"
    FileOID="ODM.SENDIGv3.1.1.2021-03-31" FileType="Snapshot" Granularity="Metadata"
    ODMVersion="1.3.2" Originator="CDISC LIBRARY" SourceSystem="cdisc_library_api"
    SourceSystemVersion="1.0" def:Context="Other" mdr:LibraryXMLVersion="1.0.0"
    xmlns="http://www.cdisc.org/ns/odm/v1.3" xmlns:def="http://www.cdisc.org/ns/def/v2.1"
    xmlns:mdr="http://www.cdisc.org/ns/library-xml/v1.0" xmlns:xlink="http://www.w3.org/1999/xlink">
    <Study OID="STUDY.SENDIG.v3.1.1">
        <GlobalVariables>
            <StudyName>SENDIG v3.1.1</StudyName>
            <StudyDescription>Standard for Exchange of Nonclinical Data Implementation Guide:
                Nonclinical Studies Version 3.1.1 (Final)</StudyDescription>
            <ProtocolName>CDISC Standard Publication</ProtocolName>
        </GlobalVariables>
        <MetaDataVersion Name="SENDIG v3.1.1 Metadata" OID="MDV.SENDIG.v3.1.1"
            def:DefineVersion="2.1.0" mdr:DatePublished="2021-03-31">
            <def:Standards>
                <def:Standard Name="SENDIG v3.1.1" OID="STD.SENDIGv3.1.1" Status="Final" Type="IG"
                    Version="3.1.1"/>
            </def:Standards>
            <ItemGroupDef Domain="EX" Name="EX" OID="IGD.EX" Purpose="Tabulation" Repeating="No"
                def:Structure="One record per constant dosing interval per treatment per subject or pool">
                <Description>
                    <TranslatedText xml:lang="en">Exposure</TranslatedText>
                </Description>
                <ItemRef ItemOID="IT.EX.STUDYID" Mandatory="No" OrderNumber="1" Role="Identifier"/>
                <ItemRef ItemOID="IT.EX.DOMAIN" Mandatory="No" OrderNumber="2" Role="Identifier"/>
                <ItemRef ItemOID="IT.EX.USUBJID" Mandatory="No" OrderNumber="3" Role="Identifier"/>
                <ItemRef ItemOID="IT.EX.POOLID" Mandatory="No" OrderNumber="4" Role="Identifier"/>
                <ItemRef ItemOID="IT.EX.FOCID" Mandatory="No" OrderNumber="5" Role="Identifier"/>
                <ItemRef ItemOID="IT.EX.EXSEQ" Mandatory="No" OrderNumber="6" Role="Identifier"/>
                <ItemRef ItemOID="IT.EX.EXTRT" Mandatory="No" OrderNumber="7" Role="Topic"/>
                <ItemRef ItemOID="IT.EX.EXDOSE" Mandatory="No" OrderNumber="8"
                    Role="Record Qualifier"/>
                <ItemRef ItemOID="IT.EX.EXDOSTXT" Mandatory="No" OrderNumber="9"
                    Role="Record Qualifier"/>
                <ItemRef ItemOID="IT.EX.EXDOSU" Mandatory="No" OrderNumber="10"
                    Role="Variable Qualifier"/>
                <ItemRef ItemOID="IT.EX.EXDOSFRM" Mandatory="No" OrderNumber="11"
                    Role="Variable Qualifier"/>
                <ItemRef ItemOID="IT.EX.EXDOSFRQ" Mandatory="No" OrderNumber="12"
                    Role="Variable Qualifier"/>
                <ItemRef ItemOID="IT.EX.EXROUTE" Mandatory="No" OrderNumber="13"
                    Role="Variable Qualifier"/>
                <ItemRef ItemOID="IT.EX.EXLOT" Mandatory="No" OrderNumber="14"
                    Role="Record Qualifier"/>
                <ItemRef ItemOID="IT.EX.EXLOC" Mandatory="No" OrderNumber="15"
                    Role="Record Qualifier"/>
                <ItemRef ItemOID="IT.EX.EXMETHOD" Mandatory="No" OrderNumber="16"
                    Role="Record Qualifier"/>
                <ItemRef ItemOID="IT.EX.EXTRTV" Mandatory="No" OrderNumber="17"
                    Role="Record Qualifier"/>
                <ItemRef ItemOID="IT.EX.EXVAMT" Mandatory="No" OrderNumber="18"
                    Role="Record Qualifier"/>
                <ItemRef ItemOID="IT.EX.EXVAMTU" Mandatory="No" OrderNumber="19"
                    Role="Variable Qualifier"/>
                <ItemRef ItemOID="IT.EX.EXADJ" Mandatory="No" OrderNumber="20"
                    Role="Record Qualifier"/>
                <ItemRef ItemOID="IT.EX.EXSTDTC" Mandatory="No" OrderNumber="21" Role="Timing"/>
                <ItemRef ItemOID="IT.EX.EXENDTC" Mandatory="No" OrderNumber="22" Role="Timing"/>
                <ItemRef ItemOID="IT.EX.EXSTDY" Mandatory="No" OrderNumber="23" Role="Timing"/>
                <ItemRef ItemOID="IT.EX.EXENDY" Mandatory="No" OrderNumber="24" Role="Timing"/>
                <ItemRef ItemOID="IT.EX.EXDUR" Mandatory="No" OrderNumber="25" Role="Timing"/>
                <ItemRef ItemOID="IT.EX.EXTPT" Mandatory="No" OrderNumber="26" Role="Timing"/>
                <ItemRef ItemOID="IT.EX.EXTPTNUM" Mandatory="No" OrderNumber="27" Role="Timing"/>
                <ItemRef ItemOID="IT.EX.EXELTM" Mandatory="No" OrderNumber="28" Role="Timing"/>
                <ItemRef ItemOID="IT.EX.EXTPTREF" Mandatory="No" OrderNumber="29" Role="Timing"/>
                <ItemRef ItemOID="IT.EX.EXRFTDTC" Mandatory="No" OrderNumber="30" Role="Timing"/>
                <def:Class Name="INTERVENTIONS"/>
            </ItemGroupDef>
            <ItemGroupDef Domain="DS" Name="DS" OID="IGD.DS" Purpose="Tabulation" Repeating="No"
                def:Structure="One record per subject">
                <Description>
                    <TranslatedText xml:lang="en">Disposition</TranslatedText>
                </Description>
                <ItemRef ItemOID="IT.DS.STUDYID" Mandatory="No" OrderNumber="1" Role="Identifier"/>
                <ItemRef ItemOID="IT.DS.DOMAIN" Mandatory="No" OrderNumber="2" Role="Identifier"/>
                <ItemRef ItemOID="IT.DS.USUBJID" Mandatory="No" OrderNumber="3" Role="Identifier"/>
                <ItemRef ItemOID="IT.DS.DSSEQ" Mandatory="No" OrderNumber="4" Role="Identifier"/>
                <ItemRef ItemOID="IT.DS.DSTERM" Mandatory="No" OrderNumber="5" Role="Topic"/>
                <ItemRef ItemOID="IT.DS.DSDECOD" Mandatory="No" OrderNumber="6"
                    Role="Synonym Qualifier"/>
                <ItemRef ItemOID="IT.DS.DSUSCHFL" Mandatory="No" OrderNumber="7"
                    Role="Record Qualifier"/>
                <ItemRef ItemOID="IT.DS.VISITDY" Mandatory="No" OrderNumber="8" Role="Timing"/>
                <ItemRef ItemOID="IT.DS.DSSTDTC" Mandatory="No" OrderNumber="9" Role="Timing"/>
                <ItemRef ItemOID="IT.DS.DSSTDY" Mandatory="No" OrderNumber="10" Role="Timing"/>
                <ItemRef ItemOID="IT.DS.DSNOMDY" Mandatory="No" OrderNumber="11" Role="Timing"/>
                <ItemRef ItemOID="IT.DS.DSNOMLBL" Mandatory="No" OrderNumber="12" Role="Timing"/>
                <def:Class Name="EVENTS"/>
            </ItemGroupDef>
            <ItemGroupDef Domain="BW" Name="BW" OID="IGD.BW" Purpose="Tabulation" Repeating="No"
                def:Structure="One record per test per observation time per subject">
                <Description>
                    <TranslatedText xml:lang="en">Body Weight</TranslatedText>
                </Description>
                <ItemRef ItemOID="IT.BW.STUDYID" Mandatory="No" OrderNumber="1" Role="Identifier"/>
                <ItemRef ItemOID="IT.BW.DOMAIN" Mandatory="No" OrderNumber="2" Role="Identifier"/>
                <ItemRef ItemOID="IT.BW.USUBJID" Mandatory="No" OrderNumber="3" Role="Identifier"/>
                <ItemRef ItemOID="IT.BW.BWSEQ" Mandatory="No" OrderNumber="4" Role="Identifier"/>
                <ItemRef ItemOID="IT.BW.BWTESTCD" Mandatory="No" OrderNumber="5" Role="Topic"/>
                <ItemRef ItemOID="IT.BW.BWTEST" Mandatory="No" OrderNumber="6"
                    Role="Synonym Qualifier"/>
                <ItemRef ItemOID="IT.BW.BWORRES" Mandatory="No" OrderNumber="7"
                    Role="Result Qualifier"/>
                <ItemRef ItemOID="IT.BW.BWORRESU" Mandatory="No" OrderNumber="8"
                    Role="Variable Qualifier"/>
                <ItemRef ItemOID="IT.BW.BWSTRESC" Mandatory="No" OrderNumber="9"
                    Role="Result Qualifier"/>
                <ItemRef ItemOID="IT.BW.BWSTRESN" Mandatory="No" OrderNumber="10"
                    Role="Result Qualifier"/>
                <ItemRef ItemOID="IT.BW.BWSTRESU" Mandatory="No" OrderNumber="11"
                    Role="Variable Qualifier"/>
                <ItemRef ItemOID="IT.BW.BWSTAT" Mandatory="No" OrderNumber="12"
                    Role="Record Qualifier"/>
                <ItemRef ItemOID="IT.BW.BWREASND" Mandatory="No" OrderNumber="13"
                    Role="Record Qualifier"/>
                <ItemRef ItemOID="IT.BW.BWBLFL" Mandatory="No" OrderNumber="14"
                    Role="Record Qualifier"/>
                <ItemRef ItemOID="IT.BW.BWFAST" Mandatory="No" OrderNumber="15"
                    Role="Record Qualifier"/>
                <ItemRef ItemOID="IT.BW.BWEXCLFL" Mandatory="No" OrderNumber="16"
                    Role="Record Qualifier"/>
                <ItemRef ItemOID="IT.BW.BWREASEX" Mandatory="No" OrderNumber="17"
                    Role="Record Qualifier"/>
                <ItemRef ItemOID="IT.BW.BWUSCHFL" Mandatory="No" OrderNumber="18"
                    Role="Record Qualifier"/>
                <ItemRef ItemOID="IT.BW.VISITDY" Mandatory="No" OrderNumber="19" Role="Timing"/>
                <ItemRef ItemOID="IT.BW.BWDTC" Mandatory="No" OrderNumber="20" Role="Timing"/>
                <ItemRef ItemOID="IT.BW.BWDY" Mandatory="No" OrderNumber="21" Role="Timing"/>
                <ItemRef ItemOID="IT.BW.BWNOMDY" Mandatory="No" OrderNumber="22" Role="Timing"/>
                <ItemRef ItemOID="IT.BW.BWNOMLBL" Mandatory="No" OrderNumber="23" Role="Timing"/>
                <def:Class Name="FINDINGS"/>
            </ItemGroupDef>
            <ItemGroupDef Domain="BG" Name="BG" OID="IGD.BG" Purpose="Tabulation" Repeating="No"
                def:Structure="One record per test per interval per subject">
                <Description>
                    <TranslatedText xml:lang="en">Body Weight Gains</TranslatedText>
                </Description>
                <ItemRef ItemOID="IT.BG.STUDYID" Mandatory="No" OrderNumber="1" Role="Identifier"/>
                <ItemRef ItemOID="IT.BG.DOMAIN" Mandatory="No" OrderNumber="2" Role="Identifier"/>
                <ItemRef ItemOID="IT.BG.USUBJID" Mandatory="No" OrderNumber="3" Role="Identifier"/>
                <ItemRef ItemOID="IT.BG.BGSEQ" Mandatory="No" OrderNumber="4" Role="Identifier"/>
                <ItemRef ItemOID="IT.BG.BGTESTCD" Mandatory="No" OrderNumber="5" Role="Topic"/>
                <ItemRef ItemOID="IT.BG.BGTEST" Mandatory="No" OrderNumber="6"
                    Role="Synonym Qualifier"/>
                <ItemRef ItemOID="IT.BG.BGORRES" Mandatory="No" OrderNumber="7"
                    Role="Result Qualifier"/>
                <ItemRef ItemOID="IT.BG.BGORRESU" Mandatory="No" OrderNumber="8"
                    Role="Variable Qualifier"/>
                <ItemRef ItemOID="IT.BG.BGSTRESC" Mandatory="No" OrderNumber="9"
                    Role="Result Qualifier"/>
                <ItemRef ItemOID="IT.BG.BGSTRESN" Mandatory="No" OrderNumber="10"
                    Role="Result Qualifier"/>
                <ItemRef ItemOID="IT.BG.BGSTRESU" Mandatory="No" OrderNumber="11"
                    Role="Variable Qualifier"/>
                <ItemRef ItemOID="IT.BG.BGSTAT" Mandatory="No" OrderNumber="12"
                    Role="Record Qualifier"/>
                <ItemRef ItemOID="IT.BG.BGREASND" Mandatory="No" OrderNumber="13"
                    Role="Record Qualifier"/>
                <ItemRef ItemOID="IT.BG.BGEXCLFL" Mandatory="No" OrderNumber="14"
                    Role="Record Qualifier"/>
                <ItemRef ItemOID="IT.BG.BGREASEX" Mandatory="No" OrderNumber="15"
                    Role="Record Qualifier"/>
                <ItemRef ItemOID="IT.BG.BGDTC" Mandatory="No" OrderNumber="16" Role="Timing"/>
                <ItemRef ItemOID="IT.BG.BGENDTC" Mandatory="No" OrderNumber="17" Role="Timing"/>
                <ItemRef ItemOID="IT.BG.BGDY" Mandatory="No" OrderNumber="18" Role="Timing"/>
                <ItemRef ItemOID="IT.BG.BGENDY" Mandatory="No" OrderNumber="19" Role="Timing"/>
                <def:Class Name="FINDINGS"/>
            </ItemGroupDef>
            <ItemGroupDef Domain="CL" Name="CL" OID="IGD.CL" Purpose="Tabulation" Repeating="No"
                def:Structure="One record per finding per observation time per subject or pool">
                <Description>
                    <TranslatedText xml:lang="en">Clinical Observations</TranslatedText>
                </Description>
                <ItemRef ItemOID="IT.CL.STUDYID" Mandatory="No" OrderNumber="1" Role="Identifier"/>
                <ItemRef ItemOID="IT.CL.DOMAIN" Mandatory="No" OrderNumber="2" Role="Identifier"/>
                <ItemRef ItemOID="IT.CL.USUBJID" Mandatory="No" OrderNumber="3" Role="Identifier"/>
                <ItemRef ItemOID="IT.CL.POOLID" Mandatory="No" OrderNumber="4" Role="Identifier"/>
                <ItemRef ItemOID="IT.CL.FOCID" Mandatory="No" OrderNumber="5" Role="Identifier"/>
                <ItemRef ItemOID="IT.CL.CLSEQ" Mandatory="No" OrderNumber="6" Role="Identifier"/>
                <ItemRef ItemOID="IT.CL.CLGRPID" Mandatory="No" OrderNumber="7" Role="Identifier"/>
                <ItemRef ItemOID="IT.CL.CLSPID" Mandatory="No" OrderNumber="8" Role="Identifier"/>
                <ItemRef ItemOID="IT.CL.CLTESTCD" Mandatory="No" OrderNumber="9" Role="Topic"/>
                <ItemRef ItemOID="IT.CL.CLTEST" Mandatory="No" OrderNumber="10"
                    Role="Synonym Qualifier"/>
                <ItemRef ItemOID="IT.CL.CLCAT" Mandatory="No" OrderNumber="11"
                    Role="Grouping Qualifier"/>
                <ItemRef ItemOID="IT.CL.CLSCAT" Mandatory="No" OrderNumber="12"
                    Role="Grouping Qualifier"/>
                <ItemRef ItemOID="IT.CL.CLBODSYS" Mandatory="No" OrderNumber="13"
                    Role="Record Qualifier"/>
                <ItemRef ItemOID="IT.CL.CLORRES" Mandatory="No" OrderNumber="14"
                    Role="Result Qualifier"/>
                <ItemRef ItemOID="IT.CL.CLSTRESC" Mandatory="No" OrderNumber="15"
                    Role="Result Qualifier"/>
                <ItemRef ItemOID="IT.CL.CLRESCAT" Mandatory="No" OrderNumber="16"
                    Role="Variable Qualifier"/>
                <ItemRef ItemOID="IT.CL.CLSTAT" Mandatory="No" OrderNumber="17"
                    Role="Record Qualifier"/>
                <ItemRef ItemOID="IT.CL.CLREASND" Mandatory="No" OrderNumber="18"
                    Role="Record Qualifier"/>
                <ItemRef ItemOID="IT.CL.CLLOC" Mandatory="No" OrderNumber="19"
                    Role="Record Qualifier"/>
                <ItemRef ItemOID="IT.CL.CLEVAL" Mandatory="No" OrderNumber="20"
                    Role="Record Qualifier"/>
                <ItemRef ItemOID="IT.CL.CLSEV" Mandatory="No" OrderNumber="21"
                    Role="Record Qualifier"/>
                <ItemRef ItemOID="IT.CL.CLEXCLFL" Mandatory="No" OrderNumber="22"
                    Role="Record Qualifier"/>
                <ItemRef ItemOID="IT.CL.CLREASEX" Mandatory="No" OrderNumber="23"
                    Role="Record Qualifier"/>
                <ItemRef ItemOID="IT.CL.CLUSCHFL" Mandatory="No" OrderNumber="24"
                    Role="Record Qualifier"/>
                <ItemRef ItemOID="IT.CL.VISITDY" Mandatory="No" OrderNumber="25" Role="Timing"/>
                <ItemRef ItemOID="IT.CL.CLDTC" Mandatory="No" OrderNumber="26" Role="Timing"/>
                <ItemRef ItemOID="IT.CL.CLENDTC" Mandatory="No" OrderNumber="27" Role="Timing"/>
                <ItemRef ItemOID="IT.CL.CLDY" Mandatory="No" OrderNumber="28" Role="Timing"/>
                <ItemRef ItemOID="IT.CL.CLENDY" Mandatory="No" OrderNumber="29" Role="Timing"/>
                <ItemRef ItemOID="IT.CL.CLNOMDY" Mandatory="No" OrderNumber="30" Role="Timing"/>
                <ItemRef ItemOID="IT.CL.CLNOMLBL" Mandatory="No" OrderNumber="31" Role="Timing"/>
                <ItemRef ItemOID="IT.CL.CLTPT" Mandatory="No" OrderNumber="32" Role="Timing"/>
                <ItemRef ItemOID="IT.CL.CLTPTNUM" Mandatory="No" OrderNumber="33" Role="Timing"/>
                <ItemRef ItemOID="IT.CL.CLELTM" Mandatory="No" OrderNumber="34" Role="Timing"/>
                <ItemRef ItemOID="IT.CL.CLTPTREF" Mandatory="No" OrderNumber="35" Role="Timing"/>
                <ItemRef ItemOID="IT.CL.CLRFTDTC" Mandatory="No" OrderNumber="36" Role="Timing"/>
                <def:Class Name="FINDINGS"/>
            </ItemGroupDef>
            <ItemGroupDef Domain="DD" Name="DD" OID="IGD.DD" Purpose="Tabulation" Repeating="No"
                def:Structure="One record per diagnosis per subject (for unscheduled deaths only)">
                <Description>
                    <TranslatedText xml:lang="en">Death Diagnosis and Details</TranslatedText>
                </Description>
                <ItemRef ItemOID="IT.DD.STUDYID" Mandatory="No" OrderNumber="1" Role="Identifier"/>
                <ItemRef ItemOID="IT.DD.DOMAIN" Mandatory="No" OrderNumber="2" Role="Identifier"/>
                <ItemRef ItemOID="IT.DD.USUBJID" Mandatory="No" OrderNumber="3" Role="Identifier"/>
                <ItemRef ItemOID="IT.DD.DDSEQ" Mandatory="No" OrderNumber="4" Role="Identifier"/>
                <ItemRef ItemOID="IT.DD.DDTESTCD" Mandatory="No" OrderNumber="5" Role="Topic"/>
                <ItemRef ItemOID="IT.DD.DDTEST" Mandatory="No" OrderNumber="6"
                    Role="Synonym Qualifier"/>
                <ItemRef ItemOID="IT.DD.DDORRES" Mandatory="No" OrderNumber="7"
                    Role="Result Qualifier"/>
                <ItemRef ItemOID="IT.DD.DDSTRESC" Mandatory="No" OrderNumber="8"
                    Role="Result Qualifier"/>
                <ItemRef ItemOID="IT.DD.DDRESCAT" Mandatory="No" OrderNumber="9"
                    Role="Variable Qualifier"/>
                <ItemRef ItemOID="IT.DD.DDEVAL" Mandatory="No" OrderNumber="10"
                    Role="Record Qualifier"/>
                <ItemRef ItemOID="IT.DD.DDDTC" Mandatory="No" OrderNumber="11" Role="Timing"/>
                <ItemRef ItemOID="IT.DD.DDDY" Mandatory="No" OrderNumber="12" Role="Timing"/>
                <def:Class Name="FINDINGS"/>
            </ItemGroupDef>
            <ItemGroupDef Domain="FW" Name="FW" OID="IGD.FW" Purpose="Tabulation" Repeating="No"
                def:Structure="One record per test per interval per subject or pool">
                <Description>
                    <TranslatedText xml:lang="en">Food and Water Consumption</TranslatedText>
                </Description>
                <ItemRef ItemOID="IT.FW.STUDYID" Mandatory="No" OrderNumber="1" Role="Identifier"/>
                <ItemRef ItemOID="IT.FW.DOMAIN" Mandatory="No" OrderNumber="2" Role="Identifier"/>
                <ItemRef ItemOID="IT.FW.USUBJID" Mandatory="No" OrderNumber="3" Role="Identifier"/>
                <ItemRef ItemOID="IT.FW.POOLID" Mandatory="No" OrderNumber="4" Role="Identifier"/>
                <ItemRef ItemOID="IT.FW.FWSEQ" Mandatory="No" OrderNumber="5" Role="Identifier"/>
                <ItemRef ItemOID="IT.FW.FWGRPID" Mandatory="No" OrderNumber="6" Role="Identifier"/>
                <ItemRef ItemOID="IT.FW.FWTESTCD" Mandatory="No" OrderNumber="7" Role="Topic"/>
                <ItemRef ItemOID="IT.FW.FWTEST" Mandatory="No" OrderNumber="8"
                    Role="Synonym Qualifier"/>
                <ItemRef ItemOID="IT.FW.FWORRES" Mandatory="No" OrderNumber="9"
                    Role="Result Qualifier"/>
                <ItemRef ItemOID="IT.FW.FWORRESU" Mandatory="No" OrderNumber="10"
                    Role="Variable Qualifier"/>
                <ItemRef ItemOID="IT.FW.FWSTRESC" Mandatory="No" OrderNumber="11"
                    Role="Result Qualifier"/>
                <ItemRef ItemOID="IT.FW.FWSTRESN" Mandatory="No" OrderNumber="12"
                    Role="Result Qualifier"/>
                <ItemRef ItemOID="IT.FW.FWSTRESU" Mandatory="No" OrderNumber="13"
                    Role="Variable Qualifier"/>
                <ItemRef ItemOID="IT.FW.FWSTAT" Mandatory="No" OrderNumber="14"
                    Role="Record Qualifier"/>
                <ItemRef ItemOID="IT.FW.FWREASND" Mandatory="No" OrderNumber="15"
                    Role="Record Qualifier"/>
                <ItemRef ItemOID="IT.FW.FWEXCLFL" Mandatory="No" OrderNumber="16"
                    Role="Record Qualifier"/>
                <ItemRef ItemOID="IT.FW.FWREASEX" Mandatory="No" OrderNumber="17"
                    Role="Record Qualifier"/>
                <ItemRef ItemOID="IT.FW.FWDTC" Mandatory="No" OrderNumber="18" Role="Timing"/>
                <ItemRef ItemOID="IT.FW.FWENDTC" Mandatory="No" OrderNumber="19" Role="Timing"/>
                <ItemRef ItemOID="IT.FW.FWDY" Mandatory="No" OrderNumber="20" Role="Timing"/>
                <ItemRef ItemOID="IT.FW.FWENDY" Mandatory="No" OrderNumber="21" Role="Timing"/>
                <def:Class Name="FINDINGS"/>
            </ItemGroupDef>
            <ItemGroupDef Domain="LB" Name="LB" OID="IGD.LB" Purpose="Tabulation" Repeating="No"
                def:Structure="One record per test per specimen per observation time per subject or pool">
                <Description>
                    <TranslatedText xml:lang="en">Laboratory</TranslatedText>
                </Description>
                <ItemRef ItemOID="IT.LB.STUDYID" Mandatory="No" OrderNumber="1" Role="Identifier"/>
                <ItemRef ItemOID="IT.LB.DOMAIN" Mandatory="No" OrderNumber="2" Role="Identifier"/>
                <ItemRef ItemOID="IT.LB.USUBJID" Mandatory="No" OrderNumber="3" Role="Identifier"/>
                <ItemRef ItemOID="IT.LB.POOLID" Mandatory="No" OrderNumber="4" Role="Identifier"/>
                <ItemRef ItemOID="IT.LB.LBSEQ" Mandatory="No" OrderNumber="5" Role="Identifier"/>
                <ItemRef ItemOID="IT.LB.LBGRPID" Mandatory="No" OrderNumber="6" Role="Identifier"/>
                <ItemRef ItemOID="IT.LB.LBREFID" Mandatory="No" OrderNumber="7" Role="Identifier"/>
                <ItemRef ItemOID="IT.LB.LBSPID" Mandatory="No" OrderNumber="8" Role="Identifier"/>
                <ItemRef ItemOID="IT.LB.LBTESTCD" Mandatory="No" OrderNumber="9" Role="Topic"/>
                <ItemRef ItemOID="IT.LB.LBTEST" Mandatory="No" OrderNumber="10"
                    Role="Synonym Qualifier"/>
                <ItemRef ItemOID="IT.LB.LBCAT" Mandatory="No" OrderNumber="11"
                    Role="Grouping Qualifier"/>
                <ItemRef ItemOID="IT.LB.LBSCAT" Mandatory="No" OrderNumber="12"
                    Role="Grouping Qualifier"/>
                <ItemRef ItemOID="IT.LB.LBORRES" Mandatory="No" OrderNumber="13"
                    Role="Result Qualifier"/>
                <ItemRef ItemOID="IT.LB.LBORRESU" Mandatory="No" OrderNumber="14"
                    Role="Variable Qualifier"/>
                <ItemRef ItemOID="IT.LB.LBORNRLO" Mandatory="No" OrderNumber="15"
                    Role="Variable Qualifier"/>
                <ItemRef ItemOID="IT.LB.LBORNRHI" Mandatory="No" OrderNumber="16"
                    Role="Variable Qualifier"/>
                <ItemRef ItemOID="IT.LB.LBSTRESC" Mandatory="No" OrderNumber="17"
                    Role="Result Qualifier"/>
                <ItemRef ItemOID="IT.LB.LBSTRESN" Mandatory="No" OrderNumber="18"
                    Role="Result Qualifier"/>
                <ItemRef ItemOID="IT.LB.LBSTRESU" Mandatory="No" OrderNumber="19"
                    Role="Variable Qualifier"/>
                <ItemRef ItemOID="IT.LB.LBSTNRLO" Mandatory="No" OrderNumber="20"
                    Role="Variable Qualifier"/>
                <ItemRef ItemOID="IT.LB.LBSTNRHI" Mandatory="No" OrderNumber="21"
                    Role="Variable Qualifier"/>
                <ItemRef ItemOID="IT.LB.LBSTNRC" Mandatory="No" OrderNumber="22"
                    Role="Variable Qualifier"/>
                <ItemRef ItemOID="IT.LB.LBNRIND" Mandatory="No" OrderNumber="23"
                    Role="Variable Qualifier"/>
                <ItemRef ItemOID="IT.LB.LBSTAT" Mandatory="No" OrderNumber="24"
                    Role="Record Qualifier"/>
                <ItemRef ItemOID="IT.LB.LBREASND" Mandatory="No" OrderNumber="25"
                    Role="Record Qualifier"/>
                <ItemRef ItemOID="IT.LB.LBNAM" Mandatory="No" OrderNumber="26"
                    Role="Record Qualifier"/>
                <ItemRef ItemOID="IT.LB.LBSPEC" Mandatory="No" OrderNumber="27"
                    Role="Record Qualifier"/>
                <ItemRef ItemOID="IT.LB.LBANTREG" Mandatory="No" OrderNumber="28"
                    Role="Variable Qualifier"/>
                <ItemRef ItemOID="IT.LB.LBSPCCND" Mandatory="No" OrderNumber="29"
                    Role="Record Qualifier"/>
                <ItemRef ItemOID="IT.LB.LBSPCUFL" Mandatory="No" OrderNumber="30"
                    Role="Record Qualifier"/>
                <ItemRef ItemOID="IT.LB.LBLOC" Mandatory="No" OrderNumber="31"
                    Role="Record Qualifier"/>
                <ItemRef ItemOID="IT.LB.LBLAT" Mandatory="No" OrderNumber="32"
                    Role="Variable Qualifier"/>
                <ItemRef ItemOID="IT.LB.LBDIR" Mandatory="No" OrderNumber="33"
                    Role="Variable Qualifier"/>
                <ItemRef ItemOID="IT.LB.LBPORTOT" Mandatory="No" OrderNumber="34"
                    Role="Variable Qualifier"/>
                <ItemRef ItemOID="IT.LB.LBMETHOD" Mandatory="No" OrderNumber="35"
                    Role="Record Qualifier"/>
                <ItemRef ItemOID="IT.LB.LBBLFL" Mandatory="No" OrderNumber="36"
                    Role="Record Qualifier"/>
                <ItemRef ItemOID="IT.LB.LBFAST" Mandatory="No" OrderNumber="37"
                    Role="Record Qualifier"/>
                <ItemRef ItemOID="IT.LB.LBDRVFL" Mandatory="No" OrderNumber="38"
                    Role="Record Qualifier"/>
                <ItemRef ItemOID="IT.LB.LBTOX" Mandatory="No" OrderNumber="39"
                    Role="Variable Qualifier"/>
                <ItemRef ItemOID="IT.LB.LBTOXGR" Mandatory="No" OrderNumber="40"
                    Role="Record Qualifier"/>
                <ItemRef ItemOID="IT.LB.LBEXCLFL" Mandatory="No" OrderNumber="41"
                    Role="Record Qualifier"/>
                <ItemRef ItemOID="IT.LB.LBREASEX" Mandatory="No" OrderNumber="42"
                    Role="Record Qualifier"/>
                <ItemRef ItemOID="IT.LB.LBUSCHFL" Mandatory="No" OrderNumber="43"
                    Role="Record Qualifier"/>
                <ItemRef ItemOID="IT.LB.VISITDY" Mandatory="No" OrderNumber="44" Role="Timing"/>
                <ItemRef ItemOID="IT.LB.LBDTC" Mandatory="No" OrderNumber="45" Role="Timing"/>
                <ItemRef ItemOID="IT.LB.LBENDTC" Mandatory="No" OrderNumber="46" Role="Timing"/>
                <ItemRef ItemOID="IT.LB.LBDY" Mandatory="No" OrderNumber="47" Role="Timing"/>
                <ItemRef ItemOID="IT.LB.LBENDY" Mandatory="No" OrderNumber="48" Role="Timing"/>
                <ItemRef ItemOID="IT.LB.LBNOMDY" Mandatory="No" OrderNumber="49" Role="Timing"/>
                <ItemRef ItemOID="IT.LB.LBNOMLBL" Mandatory="No" OrderNumber="50" Role="Timing"/>
                <ItemRef ItemOID="IT.LB.LBTPT" Mandatory="No" OrderNumber="51" Role="Timing"/>
                <ItemRef ItemOID="IT.LB.LBTPTNUM" Mandatory="No" OrderNumber="52" Role="Timing"/>
                <ItemRef ItemOID="IT.LB.LBELTM" Mandatory="No" OrderNumber="53" Role="Timing"/>
                <ItemRef ItemOID="IT.LB.LBTPTREF" Mandatory="No" OrderNumber="54" Role="Timing"/>
                <ItemRef ItemOID="IT.LB.LBRFTDTC" Mandatory="No" OrderNumber="55" Role="Timing"/>
                <def:Class Name="FINDINGS"/>
            </ItemGroupDef>
            <ItemGroupDef Domain="MA" Name="MA" OID="IGD.MA" Purpose="Tabulation" Repeating="No"
                def:Structure="One record per finding per specimen per subject">
                <Description>
                    <TranslatedText xml:lang="en">Macroscopic Findings</TranslatedText>
                </Description>
                <ItemRef ItemOID="IT.MA.STUDYID" Mandatory="No" OrderNumber="1" Role="Identifier"/>
                <ItemRef ItemOID="IT.MA.DOMAIN" Mandatory="No" OrderNumber="2" Role="Identifier"/>
                <ItemRef ItemOID="IT.MA.USUBJID" Mandatory="No" OrderNumber="3" Role="Identifier"/>
                <ItemRef ItemOID="IT.MA.FOCID" Mandatory="No" OrderNumber="4" Role="Identifier"/>
                <ItemRef ItemOID="IT.MA.MASEQ" Mandatory="No" OrderNumber="5" Role="Identifier"/>
                <ItemRef ItemOID="IT.MA.MAGRPID" Mandatory="No" OrderNumber="6" Role="Identifier"/>
                <ItemRef ItemOID="IT.MA.MAREFID" Mandatory="No" OrderNumber="7" Role="Identifier"/>
                <ItemRef ItemOID="IT.MA.MASPID" Mandatory="No" OrderNumber="8" Role="Identifier"/>
                <ItemRef ItemOID="IT.MA.MATESTCD" Mandatory="No" OrderNumber="9" Role="Topic"/>
                <ItemRef ItemOID="IT.MA.MATEST" Mandatory="No" OrderNumber="10"
                    Role="Synonym Qualifier"/>
                <ItemRef ItemOID="IT.MA.MABODSYS" Mandatory="No" OrderNumber="11"
                    Role="Record Qualifier"/>
                <ItemRef ItemOID="IT.MA.MAORRES" Mandatory="No" OrderNumber="12"
                    Role="Result Qualifier"/>
                <ItemRef ItemOID="IT.MA.MASTRESC" Mandatory="No" OrderNumber="13"
                    Role="Result Qualifier"/>
                <ItemRef ItemOID="IT.MA.MASTAT" Mandatory="No" OrderNumber="14"
                    Role="Record Qualifier"/>
                <ItemRef ItemOID="IT.MA.MAREASND" Mandatory="No" OrderNumber="15"
                    Role="Record Qualifier"/>
                <ItemRef ItemOID="IT.MA.MANAM" Mandatory="No" OrderNumber="16"
                    Role="Record Qualifier"/>
                <ItemRef ItemOID="IT.MA.MASPEC" Mandatory="No" OrderNumber="17"
                    Role="Record Qualifier"/>
                <ItemRef ItemOID="IT.MA.MAANTREG" Mandatory="No" OrderNumber="18"
                    Role="Variable Qualifier"/>
                <ItemRef ItemOID="IT.MA.MASPCCND" Mandatory="No" OrderNumber="19"
                    Role="Record Qualifier"/>
                <ItemRef ItemOID="IT.MA.MASPCUFL" Mandatory="No" OrderNumber="20"
                    Role="Record Qualifier"/>
                <ItemRef ItemOID="IT.MA.MALAT" Mandatory="No" OrderNumber="21"
                    Role="Variable Qualifier"/>
                <ItemRef ItemOID="IT.MA.MADIR" Mandatory="No" OrderNumber="22"
                    Role="Variable Qualifier"/>
                <ItemRef ItemOID="IT.MA.MAPORTOT" Mandatory="No" OrderNumber="23"
                    Role="Variable Qualifier"/>
                <ItemRef ItemOID="IT.MA.MAEVAL" Mandatory="No" OrderNumber="24"
                    Role="Record Qualifier"/>
                <ItemRef ItemOID="IT.MA.MASEV" Mandatory="No" OrderNumber="25"
                    Role="Record Qualifier"/>
                <ItemRef ItemOID="IT.MA.MADTHREL" Mandatory="No" OrderNumber="26"
                    Role="Record Qualifier"/>
                <ItemRef ItemOID="IT.MA.MADTC" Mandatory="No" OrderNumber="27" Role="Timing"/>
                <ItemRef ItemOID="IT.MA.MADY" Mandatory="No" OrderNumber="28" Role="Timing"/>
                <def:Class Name="FINDINGS"/>
            </ItemGroupDef>
            <ItemGroupDef Domain="MI" Name="MI" OID="IGD.MI" Purpose="Tabulation" Repeating="No"
                def:Structure="One record per finding per specimen per subject">
                <Description>
                    <TranslatedText xml:lang="en">Microscopic Findings</TranslatedText>
                </Description>
                <ItemRef ItemOID="IT.MI.STUDYID" Mandatory="No" OrderNumber="1" Role="Identifier"/>
                <ItemRef ItemOID="IT.MI.DOMAIN" Mandatory="No" OrderNumber="2" Role="Identifier"/>
                <ItemRef ItemOID="IT.MI.USUBJID" Mandatory="No" OrderNumber="3" Role="Identifier"/>
                <ItemRef ItemOID="IT.MI.FOCID" Mandatory="No" OrderNumber="4" Role="Identifier"/>
                <ItemRef ItemOID="IT.MI.MISEQ" Mandatory="No" OrderNumber="5" Role="Identifier"/>
                <ItemRef ItemOID="IT.MI.MIGRPID" Mandatory="No" OrderNumber="6" Role="Identifier"/>
                <ItemRef ItemOID="IT.MI.MIREFID" Mandatory="No" OrderNumber="7" Role="Identifier"/>
                <ItemRef ItemOID="IT.MI.MISPID" Mandatory="No" OrderNumber="8" Role="Identifier"/>
                <ItemRef ItemOID="IT.MI.MITESTCD" Mandatory="No" OrderNumber="9" Role="Topic"/>
                <ItemRef ItemOID="IT.MI.MITEST" Mandatory="No" OrderNumber="10"
                    Role="Synonym Qualifier"/>
                <ItemRef ItemOID="IT.MI.MIBODSYS" Mandatory="No" OrderNumber="11"
                    Role="Record Qualifier"/>
                <ItemRef ItemOID="IT.MI.MIORRES" Mandatory="No" OrderNumber="12"
                    Role="Result Qualifier"/>
                <ItemRef ItemOID="IT.MI.MISTRESC" Mandatory="No" OrderNumber="13"
                    Role="Result Qualifier"/>
                <ItemRef ItemOID="IT.MI.MIRESCAT" Mandatory="No" OrderNumber="14"
                    Role="Variable Qualifier"/>
                <ItemRef ItemOID="IT.MI.MICHRON" Mandatory="No" OrderNumber="15"
                    Role="Variable Qualifier"/>
                <ItemRef ItemOID="IT.MI.MIDISTR" Mandatory="No" OrderNumber="16"
                    Role="Variable Qualifier"/>
                <ItemRef ItemOID="IT.MI.MISTAT" Mandatory="No" OrderNumber="17"
                    Role="Record Qualifier"/>
                <ItemRef ItemOID="IT.MI.MIREASND" Mandatory="No" OrderNumber="18"
                    Role="Record Qualifier"/>
                <ItemRef ItemOID="IT.MI.MINAM" Mandatory="No" OrderNumber="19"
                    Role="Record Qualifier"/>
                <ItemRef ItemOID="IT.MI.MISPEC" Mandatory="No" OrderNumber="20"
                    Role="Record Qualifier"/>
                <ItemRef ItemOID="IT.MI.MIANTREG" Mandatory="No" OrderNumber="21"
                    Role="Variable Qualifier"/>
                <ItemRef ItemOID="IT.MI.MISPCCND" Mandatory="No" OrderNumber="22"
                    Role="Record Qualifier"/>
                <ItemRef ItemOID="IT.MI.MISPCUFL" Mandatory="No" OrderNumber="23"
                    Role="Record Qualifier"/>
                <ItemRef ItemOID="IT.MI.MILAT" Mandatory="No" OrderNumber="24"
                    Role="Variable Qualifier"/>
                <ItemRef ItemOID="IT.MI.MIDIR" Mandatory="No" OrderNumber="25"
                    Role="Variable Qualifier"/>
                <ItemRef ItemOID="IT.MI.MIMETHOD" Mandatory="No" OrderNumber="26"
                    Role="Record Qualifier"/>
                <ItemRef ItemOID="IT.MI.MIEVAL" Mandatory="No" OrderNumber="27"
                    Role="Record Qualifier"/>
                <ItemRef ItemOID="IT.MI.MISEV" Mandatory="No" OrderNumber="28"
                    Role="Record Qualifier"/>
                <ItemRef ItemOID="IT.MI.MIDTHREL" Mandatory="No" OrderNumber="29"
                    Role="Record Qualifier"/>
                <ItemRef ItemOID="IT.MI.MIDTC" Mandatory="No" OrderNumber="30" Role="Timing"/>
                <ItemRef ItemOID="IT.MI.MIDY" Mandatory="No" OrderNumber="31" Role="Timing"/>
                <def:Class Name="FINDINGS"/>
            </ItemGroupDef>
            <ItemGroupDef Domain="OM" Name="OM" OID="IGD.OM" Purpose="Tabulation" Repeating="No"
                def:Structure="One record per test per specimen per subject">
                <Description>
                    <TranslatedText xml:lang="en">Organ Measurements</TranslatedText>
                </Description>
                <ItemRef ItemOID="IT.OM.STUDYID" Mandatory="No" OrderNumber="1" Role="Identifier"/>
                <ItemRef ItemOID="IT.OM.DOMAIN" Mandatory="No" OrderNumber="2" Role="Identifier"/>
                <ItemRef ItemOID="IT.OM.USUBJID" Mandatory="No" OrderNumber="3" Role="Identifier"/>
                <ItemRef ItemOID="IT.OM.OMSEQ" Mandatory="No" OrderNumber="4" Role="Identifier"/>
                <ItemRef ItemOID="IT.OM.OMTESTCD" Mandatory="No" OrderNumber="5" Role="Topic"/>
                <ItemRef ItemOID="IT.OM.OMTEST" Mandatory="No" OrderNumber="6"
                    Role="Synonym Qualifier"/>
                <ItemRef ItemOID="IT.OM.OMORRES" Mandatory="No" OrderNumber="7"
                    Role="Result Qualifier"/>
                <ItemRef ItemOID="IT.OM.OMORRESU" Mandatory="No" OrderNumber="8"
                    Role="Variable Qualifier"/>
                <ItemRef ItemOID="IT.OM.OMSTRESC" Mandatory="No" OrderNumber="9"
                    Role="Result Qualifier"/>
                <ItemRef ItemOID="IT.OM.OMSTRESN" Mandatory="No" OrderNumber="10"
                    Role="Result Qualifier"/>
                <ItemRef ItemOID="IT.OM.OMSTRESU" Mandatory="No" OrderNumber="11"
                    Role="Variable Qualifier"/>
                <ItemRef ItemOID="IT.OM.OMSTAT" Mandatory="No" OrderNumber="12"
                    Role="Record Qualifier"/>
                <ItemRef ItemOID="IT.OM.OMREASND" Mandatory="No" OrderNumber="13"
                    Role="Record Qualifier"/>
                <ItemRef ItemOID="IT.OM.OMSPEC" Mandatory="No" OrderNumber="14"
                    Role="Record Qualifier"/>
                <ItemRef ItemOID="IT.OM.OMANTREG" Mandatory="No" OrderNumber="15"
                    Role="Variable Qualifier"/>
                <ItemRef ItemOID="IT.OM.OMSPCCND" Mandatory="No" OrderNumber="16"
                    Role="Record Qualifier"/>
                <ItemRef ItemOID="IT.OM.OMSPCUFL" Mandatory="No" OrderNumber="17"
                    Role="Record Qualifier"/>
                <ItemRef ItemOID="IT.OM.OMLAT" Mandatory="No" OrderNumber="18"
                    Role="Variable Qualifier"/>
                <ItemRef ItemOID="IT.OM.OMDIR" Mandatory="No" OrderNumber="19"
                    Role="Variable Qualifier"/>
                <ItemRef ItemOID="IT.OM.OMPORTOT" Mandatory="No" OrderNumber="20"
                    Role="Variable Qualifier"/>
                <ItemRef ItemOID="IT.OM.OMEXCLFL" Mandatory="No" OrderNumber="21"
                    Role="Record Qualifier"/>
                <ItemRef ItemOID="IT.OM.OMREASEX" Mandatory="No" OrderNumber="22"
                    Role="Record Qualifier"/>
                <ItemRef ItemOID="IT.OM.OMDTC" Mandatory="No" OrderNumber="23" Role="Timing"/>
                <ItemRef ItemOID="IT.OM.OMDY" Mandatory="No" OrderNumber="24" Role="Timing"/>
                <ItemRef ItemOID="IT.OM.OMNOMDY" Mandatory="No" OrderNumber="25" Role="Timing"/>
                <ItemRef ItemOID="IT.OM.OMNOMLBL" Mandatory="No" OrderNumber="26" Role="Timing"/>
                <def:Class Name="FINDINGS"/>
            </ItemGroupDef>
            <ItemGroupDef Domain="PM" Name="PM" OID="IGD.PM" Purpose="Tabulation" Repeating="No"
                def:Structure="One record per test per palpable mass per observation time per subject">
                <Description>
                    <TranslatedText xml:lang="en">Palpable Masses</TranslatedText>
                </Description>
                <ItemRef ItemOID="IT.PM.STUDYID" Mandatory="No" OrderNumber="1" Role="Identifier"/>
                <ItemRef ItemOID="IT.PM.DOMAIN" Mandatory="No" OrderNumber="2" Role="Identifier"/>
                <ItemRef ItemOID="IT.PM.USUBJID" Mandatory="No" OrderNumber="3" Role="Identifier"/>
                <ItemRef ItemOID="IT.PM.PMSEQ" Mandatory="No" OrderNumber="4" Role="Identifier"/>
                <ItemRef ItemOID="IT.PM.PMGRPID" Mandatory="No" OrderNumber="5" Role="Identifier"/>
                <ItemRef ItemOID="IT.PM.PMSPID" Mandatory="No" OrderNumber="6" Role="Identifier"/>
                <ItemRef ItemOID="IT.PM.PMTESTCD" Mandatory="No" OrderNumber="7" Role="Topic"/>
                <ItemRef ItemOID="IT.PM.PMTEST" Mandatory="No" OrderNumber="8"
                    Role="Synonym Qualifier"/>
                <ItemRef ItemOID="IT.PM.PMORRES" Mandatory="No" OrderNumber="9"
                    Role="Variable Qualifier"/>
                <ItemRef ItemOID="IT.PM.PMORRESU" Mandatory="No" OrderNumber="10"
                    Role="Variable Qualifier"/>
                <ItemRef ItemOID="IT.PM.PMSTRESC" Mandatory="No" OrderNumber="11"
                    Role="Result Qualifier"/>
                <ItemRef ItemOID="IT.PM.PMSTRESN" Mandatory="No" OrderNumber="12"
                    Role="Result Qualifier"/>
                <ItemRef ItemOID="IT.PM.PMSTRESU" Mandatory="No" OrderNumber="13"
                    Role="Variable Qualifier"/>
                <ItemRef ItemOID="IT.PM.PMSTAT" Mandatory="No" OrderNumber="14"
                    Role="Record Qualifier"/>
                <ItemRef ItemOID="IT.PM.PMREASND" Mandatory="No" OrderNumber="15"
                    Role="Record Qualifier"/>
                <ItemRef ItemOID="IT.PM.PMLOC" Mandatory="No" OrderNumber="16"
                    Role="Record Qualifier"/>
                <ItemRef ItemOID="IT.PM.PMEVAL" Mandatory="No" OrderNumber="17"
                    Role="Record Qualifier"/>
                <ItemRef ItemOID="IT.PM.PMUSCHFL" Mandatory="No" OrderNumber="18"
                    Role="Record Qualifier"/>
                <ItemRef ItemOID="IT.PM.VISITDY" Mandatory="No" OrderNumber="19" Role="Timing"/>
                <ItemRef ItemOID="IT.PM.PMDTC" Mandatory="No" OrderNumber="20" Role="Timing"/>
                <ItemRef ItemOID="IT.PM.PMDY" Mandatory="No" OrderNumber="21" Role="Timing"/>
                <ItemRef ItemOID="IT.PM.PMNOMDY" Mandatory="No" OrderNumber="22" Role="Timing"/>
                <ItemRef ItemOID="IT.PM.PMNOMLBL" Mandatory="No" OrderNumber="23" Role="Timing"/>
                <def:Class Name="FINDINGS"/>
            </ItemGroupDef>
            <ItemGroupDef Domain="PC" Name="PC" OID="IGD.PC" Purpose="Tabulation" Repeating="No"
                def:Structure="One record per test per specimen per observation time per subject or pool">
                <Description>
                    <TranslatedText xml:lang="en">Pharmacokinetic Concentrations</TranslatedText>
                </Description>
                <ItemRef ItemOID="IT.PC.STUDYID" Mandatory="No" OrderNumber="1" Role="Identifier"/>
                <ItemRef ItemOID="IT.PC.DOMAIN" Mandatory="No" OrderNumber="2" Role="Identifier"/>
                <ItemRef ItemOID="IT.PC.USUBJID" Mandatory="No" OrderNumber="3" Role="Identifier"/>
                <ItemRef ItemOID="IT.PC.POOLID" Mandatory="No" OrderNumber="4" Role="Identifier"/>
                <ItemRef ItemOID="IT.PC.PCSEQ" Mandatory="No" OrderNumber="5" Role="Identifier"/>
                <ItemRef ItemOID="IT.PC.PCGRPID" Mandatory="No" OrderNumber="6" Role="Identifier"/>
                <ItemRef ItemOID="IT.PC.PCREFID" Mandatory="No" OrderNumber="7" Role="Identifier"/>
                <ItemRef ItemOID="IT.PC.PCSPID" Mandatory="No" OrderNumber="8" Role="Identifier"/>
                <ItemRef ItemOID="IT.PC.PCTESTCD" Mandatory="No" OrderNumber="9" Role="Topic"/>
                <ItemRef ItemOID="IT.PC.PCTEST" Mandatory="No" OrderNumber="10"
                    Role="Synonym Qualifier"/>
                <ItemRef ItemOID="IT.PC.PCCAT" Mandatory="No" OrderNumber="11"
                    Role="Grouping Qualifier"/>
                <ItemRef ItemOID="IT.PC.PCSCAT" Mandatory="No" OrderNumber="12"
                    Role="Grouping Qualifier"/>
                <ItemRef ItemOID="IT.PC.PCORRES" Mandatory="No" OrderNumber="13"
                    Role="Result Qualifier"/>
                <ItemRef ItemOID="IT.PC.PCORRESU" Mandatory="No" OrderNumber="14"
                    Role="Variable Qualifier"/>
                <ItemRef ItemOID="IT.PC.PCSTRESC" Mandatory="No" OrderNumber="15"
                    Role="Result Qualifier"/>
                <ItemRef ItemOID="IT.PC.PCSTRESN" Mandatory="No" OrderNumber="16"
                    Role="Result Qualifier"/>
                <ItemRef ItemOID="IT.PC.PCSTRESU" Mandatory="No" OrderNumber="17"
                    Role="Variable Qualifier"/>
                <ItemRef ItemOID="IT.PC.PCSTAT" Mandatory="No" OrderNumber="18"
                    Role="Record Qualifier"/>
                <ItemRef ItemOID="IT.PC.PCREASND" Mandatory="No" OrderNumber="19"
                    Role="Record Qualifier"/>
                <ItemRef ItemOID="IT.PC.PCNAM" Mandatory="No" OrderNumber="20"
                    Role="Record Qualifier"/>
                <ItemRef ItemOID="IT.PC.PCSPEC" Mandatory="No" OrderNumber="21"
                    Role="Record Qualifier"/>
                <ItemRef ItemOID="IT.PC.PCSPCCND" Mandatory="No" OrderNumber="22"
                    Role="Record Qualifier"/>
                <ItemRef ItemOID="IT.PC.PCSPCUFL" Mandatory="No" OrderNumber="23"
                    Role="Record Qualifier"/>
                <ItemRef ItemOID="IT.PC.PCMETHOD" Mandatory="No" OrderNumber="24"
                    Role="Record Qualifier"/>
                <ItemRef ItemOID="IT.PC.PCBLFL" Mandatory="No" OrderNumber="25"
                    Role="Record Qualifier"/>
                <ItemRef ItemOID="IT.PC.PCFAST" Mandatory="No" OrderNumber="26"
                    Role="Record Qualifier"/>
                <ItemRef ItemOID="IT.PC.PCDRVFL" Mandatory="No" OrderNumber="27"
                    Role="Record Qualifier"/>
                <ItemRef ItemOID="IT.PC.PCLLOQ" Mandatory="No" OrderNumber="28"
                    Role="Variable Qualifier"/>
                <ItemRef ItemOID="IT.PC.PCEXCLFL" Mandatory="No" OrderNumber="29"
                    Role="Record Qualifier"/>
                <ItemRef ItemOID="IT.PC.PCREASEX" Mandatory="No" OrderNumber="30"
                    Role="Record Qualifier"/>
                <ItemRef ItemOID="IT.PC.PCUSCHFL" Mandatory="No" OrderNumber="31"
                    Role="Record Qualifier"/>
                <ItemRef ItemOID="IT.PC.VISITDY" Mandatory="No" OrderNumber="32" Role="Timing"/>
                <ItemRef ItemOID="IT.PC.PCDTC" Mandatory="No" OrderNumber="33" Role="Timing"/>
                <ItemRef ItemOID="IT.PC.PCENDTC" Mandatory="No" OrderNumber="34" Role="Timing"/>
                <ItemRef ItemOID="IT.PC.PCDY" Mandatory="No" OrderNumber="35" Role="Timing"/>
                <ItemRef ItemOID="IT.PC.PCENDY" Mandatory="No" OrderNumber="36" Role="Timing"/>
                <ItemRef ItemOID="IT.PC.PCNOMDY" Mandatory="No" OrderNumber="37" Role="Timing"/>
                <ItemRef ItemOID="IT.PC.PCNOMLBL" Mandatory="No" OrderNumber="38" Role="Timing"/>
                <ItemRef ItemOID="IT.PC.PCTPT" Mandatory="No" OrderNumber="39" Role="Timing"/>
                <ItemRef ItemOID="IT.PC.PCTPTNUM" Mandatory="No" OrderNumber="40" Role="Timing"/>
                <ItemRef ItemOID="IT.PC.PCELTM" Mandatory="No" OrderNumber="41" Role="Timing"/>
                <ItemRef ItemOID="IT.PC.PCTPTREF" Mandatory="No" OrderNumber="42" Role="Timing"/>
                <ItemRef ItemOID="IT.PC.PCRFTDTC" Mandatory="No" OrderNumber="43" Role="Timing"/>
                <ItemRef ItemOID="IT.PC.PCEVLINT" Mandatory="No" OrderNumber="44" Role="Timing"/>
                <def:Class Name="FINDINGS"/>
            </ItemGroupDef>
            <ItemGroupDef Domain="PP" Name="PP" OID="IGD.PP" Purpose="Tabulation" Repeating="No"
                def:Structure="One record per pharmacokinetic parameter per time-concentration profile per specimen per subject or pool">
                <Description>
                    <TranslatedText xml:lang="en">Pharmacokinetics Parameters</TranslatedText>
                </Description>
                <ItemRef ItemOID="IT.PP.STUDYID" Mandatory="No" OrderNumber="1" Role="Identifier"/>
                <ItemRef ItemOID="IT.PP.DOMAIN" Mandatory="No" OrderNumber="2" Role="Identifier"/>
                <ItemRef ItemOID="IT.PP.USUBJID" Mandatory="No" OrderNumber="3" Role="Identifier"/>
                <ItemRef ItemOID="IT.PP.POOLID" Mandatory="No" OrderNumber="4" Role="Identifier"/>
                <ItemRef ItemOID="IT.PP.PPSEQ" Mandatory="No" OrderNumber="5" Role="Identifier"/>
                <ItemRef ItemOID="IT.PP.PPGRPID" Mandatory="No" OrderNumber="6" Role="Identifier"/>
                <ItemRef ItemOID="IT.PP.PPTESTCD" Mandatory="No" OrderNumber="7" Role="Topic"/>
                <ItemRef ItemOID="IT.PP.PPTEST" Mandatory="No" OrderNumber="8"
                    Role="Synonym Qualifier"/>
                <ItemRef ItemOID="IT.PP.PPCAT" Mandatory="No" OrderNumber="9"
                    Role="Grouping Qualifier"/>
                <ItemRef ItemOID="IT.PP.PPSCAT" Mandatory="No" OrderNumber="10"
                    Role="Grouping Qualifier"/>
                <ItemRef ItemOID="IT.PP.PPORRES" Mandatory="No" OrderNumber="11"
                    Role="Result Qualifier"/>
                <ItemRef ItemOID="IT.PP.PPORRESU" Mandatory="No" OrderNumber="12"
                    Role="Variable Qualifier"/>
                <ItemRef ItemOID="IT.PP.PPSTRESC" Mandatory="No" OrderNumber="13"
                    Role="Result Qualifier"/>
                <ItemRef ItemOID="IT.PP.PPSTRESN" Mandatory="No" OrderNumber="14"
                    Role="Result Qualifier"/>
                <ItemRef ItemOID="IT.PP.PPSTRESU" Mandatory="No" OrderNumber="15"
                    Role="Variable Qualifier"/>
                <ItemRef ItemOID="IT.PP.PPSTAT" Mandatory="No" OrderNumber="16"
                    Role="Record Qualifier"/>
                <ItemRef ItemOID="IT.PP.PPREASND" Mandatory="No" OrderNumber="17"
                    Role="Record Qualifier"/>
                <ItemRef ItemOID="IT.PP.PPSPEC" Mandatory="No" OrderNumber="18"
                    Role="Record Qualifier"/>
                <ItemRef ItemOID="IT.PP.VISITDY" Mandatory="No" OrderNumber="19" Role="Timing"/>
                <ItemRef ItemOID="IT.PP.PPNOMDY" Mandatory="No" OrderNumber="20" Role="Timing"/>
                <ItemRef ItemOID="IT.PP.PPNOMLBL" Mandatory="No" OrderNumber="21" Role="Timing"/>
                <ItemRef ItemOID="IT.PP.PPTPTREF" Mandatory="No" OrderNumber="22" Role="Timing"/>
                <ItemRef ItemOID="IT.PP.PPRFTDTC" Mandatory="No" OrderNumber="23" Role="Timing"/>
                <ItemRef ItemOID="IT.PP.PPSTINT" Mandatory="No" OrderNumber="24" Role="Timing"/>
                <ItemRef ItemOID="IT.PP.PPENINT" Mandatory="No" OrderNumber="25" Role="Timing"/>
                <def:Class Name="FINDINGS"/>
            </ItemGroupDef>
            <ItemGroupDef Domain="SC" Name="SC" OID="IGD.SC" Purpose="Tabulation" Repeating="No"
                def:Structure="One record per characteristic per subject">
                <Description>
                    <TranslatedText xml:lang="en">Subject Characteristics</TranslatedText>
                </Description>
                <ItemRef ItemOID="IT.SC.STUDYID" Mandatory="No" OrderNumber="1" Role="Identifier"/>
                <ItemRef ItemOID="IT.SC.DOMAIN" Mandatory="No" OrderNumber="2" Role="Identifier"/>
                <ItemRef ItemOID="IT.SC.USUBJID" Mandatory="No" OrderNumber="3" Role="Identifier"/>
                <ItemRef ItemOID="IT.SC.SCSEQ" Mandatory="No" OrderNumber="4" Role="Identifier"/>
                <ItemRef ItemOID="IT.SC.SCGRPID" Mandatory="No" OrderNumber="5" Role="Identifier"/>
                <ItemRef ItemOID="IT.SC.SCTESTCD" Mandatory="No" OrderNumber="6" Role="Topic"/>
                <ItemRef ItemOID="IT.SC.SCTEST" Mandatory="No" OrderNumber="7"
                    Role="Synonym Qualifier"/>
                <ItemRef ItemOID="IT.SC.SCORRES" Mandatory="No" OrderNumber="8"
                    Role="Result Qualifier"/>
                <ItemRef ItemOID="IT.SC.SCORRESU" Mandatory="No" OrderNumber="9"
                    Role="Variable Qualifier"/>
                <ItemRef ItemOID="IT.SC.SCSTRESC" Mandatory="No" OrderNumber="10"
                    Role="Result Qualifier"/>
                <ItemRef ItemOID="IT.SC.SCSTRESN" Mandatory="No" OrderNumber="11"
                    Role="Result Qualifier"/>
                <ItemRef ItemOID="IT.SC.SCSTRESU" Mandatory="No" OrderNumber="12"
                    Role="Variable Qualifier"/>
                <ItemRef ItemOID="IT.SC.SCDTC" Mandatory="No" OrderNumber="13" Role="Timing"/>
                <ItemRef ItemOID="IT.SC.SCDY" Mandatory="No" OrderNumber="14" Role="Timing"/>
                <def:Class Name="FINDINGS"/>
            </ItemGroupDef>
            <ItemGroupDef Domain="TF" Name="TF" OID="IGD.TF" Purpose="Tabulation" Repeating="No"
                def:Structure="One record per tumor per specimen per subject">
                <Description>
                    <TranslatedText xml:lang="en">Tumor Findings</TranslatedText>
                </Description>
                <ItemRef ItemOID="IT.TF.STUDYID" Mandatory="No" OrderNumber="1" Role="Identifier"/>
                <ItemRef ItemOID="IT.TF.DOMAIN" Mandatory="No" OrderNumber="2" Role="Identifier"/>
                <ItemRef ItemOID="IT.TF.USUBJID" Mandatory="No" OrderNumber="3" Role="Identifier"/>
                <ItemRef ItemOID="IT.TF.TFSEQ" Mandatory="No" OrderNumber="4" Role="Identifier"/>
                <ItemRef ItemOID="IT.TF.TFGRPID" Mandatory="No" OrderNumber="5" Role="Identifier"/>
                <ItemRef ItemOID="IT.TF.TFREFID" Mandatory="No" OrderNumber="6" Role="Identifier"/>
                <ItemRef ItemOID="IT.TF.TFSPID" Mandatory="No" OrderNumber="7" Role="Identifier"/>
                <ItemRef ItemOID="IT.TF.TFTESTCD" Mandatory="No" OrderNumber="8" Role="Topic"/>
                <ItemRef ItemOID="IT.TF.TFTEST" Mandatory="No" OrderNumber="9"
                    Role="Synonym Qualifier"/>
                <ItemRef ItemOID="IT.TF.TFORRES" Mandatory="No" OrderNumber="10"
                    Role="Result Qualifier"/>
                <ItemRef ItemOID="IT.TF.TFSTRESC" Mandatory="No" OrderNumber="11"
                    Role="Result Qualifier"/>
                <ItemRef ItemOID="IT.TF.TFRESCAT" Mandatory="No" OrderNumber="12"
                    Role="Variable Qualifier"/>
                <ItemRef ItemOID="IT.TF.TFNAM" Mandatory="No" OrderNumber="13"
                    Role="Record Qualifier"/>
                <ItemRef ItemOID="IT.TF.TFSPEC" Mandatory="No" OrderNumber="14"
                    Role="Record Qualifier"/>
                <ItemRef ItemOID="IT.TF.TFANTREG" Mandatory="No" OrderNumber="15"
                    Role="Variable Qualifier"/>
                <ItemRef ItemOID="IT.TF.TFSPCCND" Mandatory="No" OrderNumber="16"
                    Role="Record Qualifier"/>
                <ItemRef ItemOID="IT.TF.TFLAT" Mandatory="No" OrderNumber="17"
                    Role="Variable Qualifier"/>
                <ItemRef ItemOID="IT.TF.TFDIR" Mandatory="No" OrderNumber="18"
                    Role="Variable Qualifier"/>
                <ItemRef ItemOID="IT.TF.TFMETHOD" Mandatory="No" OrderNumber="19"
                    Role="Record Qualifier"/>
                <ItemRef ItemOID="IT.TF.TFEVAL" Mandatory="No" OrderNumber="20"
                    Role="Record Qualifier"/>
                <ItemRef ItemOID="IT.TF.TFDTHREL" Mandatory="No" OrderNumber="21"
                    Role="Record Qualifier"/>
                <ItemRef ItemOID="IT.TF.TFDTC" Mandatory="No" OrderNumber="22" Role="Timing"/>
                <ItemRef ItemOID="IT.TF.TFDY" Mandatory="No" OrderNumber="23" Role="Timing"/>
                <ItemRef ItemOID="IT.TF.TFDETECT" Mandatory="No" OrderNumber="24" Role="Timing"/>
                <def:Class Name="FINDINGS"/>
            </ItemGroupDef>
            <ItemGroupDef Domain="VS" Name="VS" OID="IGD.VS" Purpose="Tabulation" Repeating="No"
                def:Structure="One record per measurement per observation time per subject">
                <Description>
                    <TranslatedText xml:lang="en">Vital Signs</TranslatedText>
                </Description>
                <ItemRef ItemOID="IT.VS.STUDYID" Mandatory="No" OrderNumber="1" Role="Identifier"/>
                <ItemRef ItemOID="IT.VS.DOMAIN" Mandatory="No" OrderNumber="2" Role="Identifier"/>
                <ItemRef ItemOID="IT.VS.USUBJID" Mandatory="No" OrderNumber="3" Role="Identifier"/>
                <ItemRef ItemOID="IT.VS.VSSEQ" Mandatory="No" OrderNumber="4" Role="Identifier"/>
                <ItemRef ItemOID="IT.VS.VSGRPID" Mandatory="No" OrderNumber="5" Role="Identifier"/>
                <ItemRef ItemOID="IT.VS.VSSPID" Mandatory="No" OrderNumber="6" Role="Identifier"/>
                <ItemRef ItemOID="IT.VS.VSTESTCD" Mandatory="No" OrderNumber="7" Role="Topic"/>
                <ItemRef ItemOID="IT.VS.VSTEST" Mandatory="No" OrderNumber="8"
                    Role="Synonym Qualifier"/>
                <ItemRef ItemOID="IT.VS.VSCAT" Mandatory="No" OrderNumber="9"
                    Role="Grouping Qualifier"/>
                <ItemRef ItemOID="IT.VS.VSSCAT" Mandatory="No" OrderNumber="10"
                    Role="Grouping Qualifier"/>
                <ItemRef ItemOID="IT.VS.VSPOS" Mandatory="No" OrderNumber="11"
                    Role="Record Qualifier"/>
                <ItemRef ItemOID="IT.VS.VSORRES" Mandatory="No" OrderNumber="12"
                    Role="Result Qualifier"/>
                <ItemRef ItemOID="IT.VS.VSORRESU" Mandatory="No" OrderNumber="13"
                    Role="Variable Qualifier"/>
                <ItemRef ItemOID="IT.VS.VSSTRESC" Mandatory="No" OrderNumber="14"
                    Role="Result Qualifier"/>
                <ItemRef ItemOID="IT.VS.VSSTRESN" Mandatory="No" OrderNumber="15"
                    Role="Result Qualifier"/>
                <ItemRef ItemOID="IT.VS.VSSTRESU" Mandatory="No" OrderNumber="16"
                    Role="Variable Qualifier"/>
                <ItemRef ItemOID="IT.VS.VSSTAT" Mandatory="No" OrderNumber="17"
                    Role="Record Qualifier"/>
                <ItemRef ItemOID="IT.VS.VSREASND" Mandatory="No" OrderNumber="18"
                    Role="Record Qualifier"/>
                <ItemRef ItemOID="IT.VS.VSLOC" Mandatory="No" OrderNumber="19"
                    Role="Record Qualifier"/>
                <ItemRef ItemOID="IT.VS.VSCSTATE" Mandatory="No" OrderNumber="20"
                    Role="Record Qualifier"/>
                <ItemRef ItemOID="IT.VS.VSBLFL" Mandatory="No" OrderNumber="21"
                    Role="Record Qualifier"/>
                <ItemRef ItemOID="IT.VS.VSDRVFL" Mandatory="No" OrderNumber="22"
                    Role="Record Qualifier"/>
                <ItemRef ItemOID="IT.VS.VSEXCLFL" Mandatory="No" OrderNumber="23"
                    Role="Record Qualifier"/>
                <ItemRef ItemOID="IT.VS.VSREASEX" Mandatory="No" OrderNumber="24"
                    Role="Record Qualifier"/>
                <ItemRef ItemOID="IT.VS.VSUSCHFL" Mandatory="No" OrderNumber="25"
                    Role="Record Qualifier"/>
                <ItemRef ItemOID="IT.VS.VISITDY" Mandatory="No" OrderNumber="26" Role="Timing"/>
                <ItemRef ItemOID="IT.VS.VSDTC" Mandatory="No" OrderNumber="27" Role="Timing"/>
                <ItemRef ItemOID="IT.VS.VSENDTC" Mandatory="No" OrderNumber="28" Role="Timing"/>
                <ItemRef ItemOID="IT.VS.VSDY" Mandatory="No" OrderNumber="29" Role="Timing"/>
                <ItemRef ItemOID="IT.VS.VSENDY" Mandatory="No" OrderNumber="30" Role="Timing"/>
                <ItemRef ItemOID="IT.VS.VSNOMDY" Mandatory="No" OrderNumber="31" Role="Timing"/>
                <ItemRef ItemOID="IT.VS.VSNOMLBL" Mandatory="No" OrderNumber="32" Role="Timing"/>
                <ItemRef ItemOID="IT.VS.VSTPT" Mandatory="No" OrderNumber="33" Role="Timing"/>
                <ItemRef ItemOID="IT.VS.VSTPTNUM" Mandatory="No" OrderNumber="34" Role="Timing"/>
                <ItemRef ItemOID="IT.VS.VSELTM" Mandatory="No" OrderNumber="35" Role="Timing"/>
                <ItemRef ItemOID="IT.VS.VSTPTREF" Mandatory="No" OrderNumber="36" Role="Timing"/>
                <ItemRef ItemOID="IT.VS.VSRFTDTC" Mandatory="No" OrderNumber="37" Role="Timing"/>
                <def:Class Name="FINDINGS"/>
            </ItemGroupDef>
            <ItemGroupDef Domain="EG" Name="EG" OID="IGD.EG" Purpose="Tabulation" Repeating="No"
                def:Structure="One record per test per ECG reference per observation time per subject">
                <Description>
                    <TranslatedText xml:lang="en">ECG</TranslatedText>
                </Description>
                <ItemRef ItemOID="IT.EG.STUDYID" Mandatory="No" OrderNumber="1" Role="Identifier"/>
                <ItemRef ItemOID="IT.EG.DOMAIN" Mandatory="No" OrderNumber="2" Role="Identifier"/>
                <ItemRef ItemOID="IT.EG.USUBJID" Mandatory="No" OrderNumber="3" Role="Identifier"/>
                <ItemRef ItemOID="IT.EG.EGSEQ" Mandatory="No" OrderNumber="4" Role="Identifier"/>
                <ItemRef ItemOID="IT.EG.EGGRPID" Mandatory="No" OrderNumber="5" Role="Identifier"/>
                <ItemRef ItemOID="IT.EG.EGREFID" Mandatory="No" OrderNumber="6" Role="Identifier"/>
                <ItemRef ItemOID="IT.EG.EGSPID" Mandatory="No" OrderNumber="7" Role="Identifier"/>
                <ItemRef ItemOID="IT.EG.EGTESTCD" Mandatory="No" OrderNumber="8" Role="Topic"/>
                <ItemRef ItemOID="IT.EG.EGTEST" Mandatory="No" OrderNumber="9"
                    Role="Synonym Qualifier"/>
                <ItemRef ItemOID="IT.EG.EGCAT" Mandatory="No" OrderNumber="10"
                    Role="Grouping Qualifier"/>
                <ItemRef ItemOID="IT.EG.EGPOS" Mandatory="No" OrderNumber="11"
                    Role="Record Qualifier"/>
                <ItemRef ItemOID="IT.EG.EGORRES" Mandatory="No" OrderNumber="12"
                    Role="Result Qualifier"/>
                <ItemRef ItemOID="IT.EG.EGORRESU" Mandatory="No" OrderNumber="13"
                    Role="Variable Qualifier"/>
                <ItemRef ItemOID="IT.EG.EGSTRESC" Mandatory="No" OrderNumber="14"
                    Role="Result Qualifier"/>
                <ItemRef ItemOID="IT.EG.EGSTRESN" Mandatory="No" OrderNumber="15"
                    Role="Result Qualifier"/>
                <ItemRef ItemOID="IT.EG.EGSTRESU" Mandatory="No" OrderNumber="16"
                    Role="Variable Qualifier"/>
                <ItemRef ItemOID="IT.EG.EGSTAT" Mandatory="No" OrderNumber="17"
                    Role="Record Qualifier"/>
                <ItemRef ItemOID="IT.EG.EGREASND" Mandatory="No" OrderNumber="18"
                    Role="Record Qualifier"/>
                <ItemRef ItemOID="IT.EG.EGXFN" Mandatory="No" OrderNumber="19"
                    Role="Record Qualifier"/>
                <ItemRef ItemOID="IT.EG.EGNAM" Mandatory="No" OrderNumber="20"
                    Role="Record Qualifier"/>
                <ItemRef ItemOID="IT.EG.EGMETHOD" Mandatory="No" OrderNumber="21"
                    Role="Record Qualifier"/>
                <ItemRef ItemOID="IT.EG.EGLEAD" Mandatory="No" OrderNumber="22"
                    Role="Record Qualifier"/>
                <ItemRef ItemOID="IT.EG.EGCSTATE" Mandatory="No" OrderNumber="23"
                    Role="Record Qualifier"/>
                <ItemRef ItemOID="IT.EG.EGBLFL" Mandatory="No" OrderNumber="24"
                    Role="Record Qualifier"/>
                <ItemRef ItemOID="IT.EG.EGDRVFL" Mandatory="No" OrderNumber="25"
                    Role="Record Qualifier"/>
                <ItemRef ItemOID="IT.EG.EGEVAL" Mandatory="No" OrderNumber="26"
                    Role="Record Qualifier"/>
                <ItemRef ItemOID="IT.EG.EGEXCLFL" Mandatory="No" OrderNumber="27"
                    Role="Record Qualifier"/>
                <ItemRef ItemOID="IT.EG.EGREASEX" Mandatory="No" OrderNumber="28"
                    Role="Record Qualifier"/>
                <ItemRef ItemOID="IT.EG.EGUSCHFL" Mandatory="No" OrderNumber="29"
                    Role="Record Qualifier"/>
                <ItemRef ItemOID="IT.EG.VISITDY" Mandatory="No" OrderNumber="30" Role="Timing"/>
                <ItemRef ItemOID="IT.EG.EGDTC" Mandatory="No" OrderNumber="31" Role="Timing"/>
                <ItemRef ItemOID="IT.EG.EGENDTC" Mandatory="No" OrderNumber="32" Role="Timing"/>
                <ItemRef ItemOID="IT.EG.EGDY" Mandatory="No" OrderNumber="33" Role="Timing"/>
                <ItemRef ItemOID="IT.EG.EGENDY" Mandatory="No" OrderNumber="34" Role="Timing"/>
                <ItemRef ItemOID="IT.EG.EGNOMDY" Mandatory="No" OrderNumber="35" Role="Timing"/>
                <ItemRef ItemOID="IT.EG.EGNOMLBL" Mandatory="No" OrderNumber="36" Role="Timing"/>
                <ItemRef ItemOID="IT.EG.EGTPT" Mandatory="No" OrderNumber="37" Role="Timing"/>
                <ItemRef ItemOID="IT.EG.EGTPTNUM" Mandatory="No" OrderNumber="38" Role="Timing"/>
                <ItemRef ItemOID="IT.EG.EGELTM" Mandatory="No" OrderNumber="39" Role="Timing"/>
                <ItemRef ItemOID="IT.EG.EGTPTREF" Mandatory="No" OrderNumber="40" Role="Timing"/>
                <ItemRef ItemOID="IT.EG.EGRFTDTC" Mandatory="No" OrderNumber="41" Role="Timing"/>
                <ItemRef ItemOID="IT.EG.EGEVLINT" Mandatory="No" OrderNumber="42" Role="Timing"/>
                <ItemRef ItemOID="IT.EG.EGSTINT" Mandatory="No" OrderNumber="43" Role="Timing"/>
                <ItemRef ItemOID="IT.EG.EGENINT" Mandatory="No" OrderNumber="44" Role="Timing"/>
                <def:Class Name="FINDINGS"/>
            </ItemGroupDef>
            <ItemGroupDef Domain="CV" Name="CV" OID="IGD.CV" Purpose="Tabulation" Repeating="No"
                def:Structure="One record per test per observation time or evaluation interval per subject">
                <Description>
                    <TranslatedText xml:lang="en">Cardiovascular Findings</TranslatedText>
                </Description>
                <ItemRef ItemOID="IT.CV.STUDYID" Mandatory="No" OrderNumber="1" Role="Identifier"/>
                <ItemRef ItemOID="IT.CV.DOMAIN" Mandatory="No" OrderNumber="2" Role="Identifier"/>
                <ItemRef ItemOID="IT.CV.USUBJID" Mandatory="No" OrderNumber="3" Role="Identifier"/>
                <ItemRef ItemOID="IT.CV.CVSEQ" Mandatory="No" OrderNumber="4" Role="Identifier"/>
                <ItemRef ItemOID="IT.CV.CVGRPID" Mandatory="No" OrderNumber="5" Role="Identifier"/>
                <ItemRef ItemOID="IT.CV.CVSPID" Mandatory="No" OrderNumber="6" Role="Identifier"/>
                <ItemRef ItemOID="IT.CV.CVTESTCD" Mandatory="No" OrderNumber="7" Role="Topic"/>
                <ItemRef ItemOID="IT.CV.CVTEST" Mandatory="No" OrderNumber="8"
                    Role="Synonym Qualifier"/>
                <ItemRef ItemOID="IT.CV.CVPOS" Mandatory="No" OrderNumber="9"
                    Role="Record Qualifier"/>
                <ItemRef ItemOID="IT.CV.CVORRES" Mandatory="No" OrderNumber="10"
                    Role="Result Qualifier"/>
                <ItemRef ItemOID="IT.CV.CVORRESU" Mandatory="No" OrderNumber="11"
                    Role="Variable Qualifier"/>
                <ItemRef ItemOID="IT.CV.CVSTRESC" Mandatory="No" OrderNumber="12"
                    Role="Result Qualifier"/>
                <ItemRef ItemOID="IT.CV.CVSTRESN" Mandatory="No" OrderNumber="13"
                    Role="Result Qualifier"/>
                <ItemRef ItemOID="IT.CV.CVSTRESU" Mandatory="No" OrderNumber="14"
                    Role="Variable Qualifier"/>
                <ItemRef ItemOID="IT.CV.CVSTAT" Mandatory="No" OrderNumber="15"
                    Role="Record Qualifier"/>
                <ItemRef ItemOID="IT.CV.CVREASND" Mandatory="No" OrderNumber="16"
                    Role="Record Qualifier"/>
                <ItemRef ItemOID="IT.CV.CVMETHOD" Mandatory="No" OrderNumber="17"
                    Role="Record Qualifier"/>
                <ItemRef ItemOID="IT.CV.CVCSTATE" Mandatory="No" OrderNumber="18"
                    Role="Record Qualifier"/>
                <ItemRef ItemOID="IT.CV.CVBLFL" Mandatory="No" OrderNumber="19"
                    Role="Record Qualifier"/>
                <ItemRef ItemOID="IT.CV.CVDRVFL" Mandatory="No" OrderNumber="20"
                    Role="Record Qualifier"/>
                <ItemRef ItemOID="IT.CV.CVEXCLFL" Mandatory="No" OrderNumber="21"
                    Role="Record Qualifier"/>
                <ItemRef ItemOID="IT.CV.CVREASEX" Mandatory="No" OrderNumber="22"
                    Role="Record Qualifier"/>
                <ItemRef ItemOID="IT.CV.CVUSCHFL" Mandatory="No" OrderNumber="23"
                    Role="Record Qualifier"/>
                <ItemRef ItemOID="IT.CV.CVDTC" Mandatory="No" OrderNumber="24" Role="Timing"/>
                <ItemRef ItemOID="IT.CV.CVENDTC" Mandatory="No" OrderNumber="25" Role="Timing"/>
                <ItemRef ItemOID="IT.CV.CVDY" Mandatory="No" OrderNumber="26" Role="Timing"/>
                <ItemRef ItemOID="IT.CV.CVENDY" Mandatory="No" OrderNumber="27" Role="Timing"/>
                <ItemRef ItemOID="IT.CV.CVNOMDY" Mandatory="No" OrderNumber="28" Role="Timing"/>
                <ItemRef ItemOID="IT.CV.CVNOMLBL" Mandatory="No" OrderNumber="29" Role="Timing"/>
                <ItemRef ItemOID="IT.CV.CVTPT" Mandatory="No" OrderNumber="30" Role="Timing"/>
                <ItemRef ItemOID="IT.CV.CVTPTNUM" Mandatory="No" OrderNumber="31" Role="Timing"/>
                <ItemRef ItemOID="IT.CV.CVELTM" Mandatory="No" OrderNumber="32" Role="Timing"/>
                <ItemRef ItemOID="IT.CV.CVTPTREF" Mandatory="No" OrderNumber="33" Role="Timing"/>
                <ItemRef ItemOID="IT.CV.CVRFTDTC" Mandatory="No" OrderNumber="34" Role="Timing"/>
                <ItemRef ItemOID="IT.CV.CVEVLINT" Mandatory="No" OrderNumber="35" Role="Timing"/>
                <ItemRef ItemOID="IT.CV.CVSTINT" Mandatory="No" OrderNumber="36" Role="Timing"/>
                <ItemRef ItemOID="IT.CV.CVENINT" Mandatory="No" OrderNumber="37" Role="Timing"/>
                <def:Class Name="FINDINGS"/>
            </ItemGroupDef>
            <ItemGroupDef Domain="RE" Name="RE" OID="IGD.RE" Purpose="Tabulation" Repeating="No"
                def:Structure="One record per test per observation time or evaluation interval per subject">
                <Description>
                    <TranslatedText xml:lang="en">Respiratory</TranslatedText>
                </Description>
                <ItemRef ItemOID="IT.RE.STUDYID" Mandatory="No" OrderNumber="1" Role="Identifier"/>
                <ItemRef ItemOID="IT.RE.DOMAIN" Mandatory="No" OrderNumber="2" Role="Identifier"/>
                <ItemRef ItemOID="IT.RE.USUBJID" Mandatory="No" OrderNumber="3" Role="Identifier"/>
                <ItemRef ItemOID="IT.RE.RESEQ" Mandatory="No" OrderNumber="4" Role="Identifier"/>
                <ItemRef ItemOID="IT.RE.REGRPID" Mandatory="No" OrderNumber="5" Role="Identifier"/>
                <ItemRef ItemOID="IT.RE.RESPID" Mandatory="No" OrderNumber="6" Role="Identifier"/>
                <ItemRef ItemOID="IT.RE.RETESTCD" Mandatory="No" OrderNumber="7" Role="Topic"/>
                <ItemRef ItemOID="IT.RE.RETEST" Mandatory="No" OrderNumber="8"
                    Role="Synonym Qualifier"/>
                <ItemRef ItemOID="IT.RE.REPOS" Mandatory="No" OrderNumber="9"
                    Role="Record Qualifier"/>
                <ItemRef ItemOID="IT.RE.REORRES" Mandatory="No" OrderNumber="10"
                    Role="Result Qualifier"/>
                <ItemRef ItemOID="IT.RE.REORRESU" Mandatory="No" OrderNumber="11"
                    Role="Variable Qualifier"/>
                <ItemRef ItemOID="IT.RE.RESTRESC" Mandatory="No" OrderNumber="12"
                    Role="Result Qualifier"/>
                <ItemRef ItemOID="IT.RE.RESTRESN" Mandatory="No" OrderNumber="13"
                    Role="Result Qualifier"/>
                <ItemRef ItemOID="IT.RE.RESTRESU" Mandatory="No" OrderNumber="14"
                    Role="Variable Qualifier"/>
                <ItemRef ItemOID="IT.RE.RESTAT" Mandatory="No" OrderNumber="15"
                    Role="Record Qualifier"/>
                <ItemRef ItemOID="IT.RE.REREASND" Mandatory="No" OrderNumber="16"
                    Role="Record Qualifier"/>
                <ItemRef ItemOID="IT.RE.REMETHOD" Mandatory="No" OrderNumber="17"
                    Role="Record Qualifier"/>
                <ItemRef ItemOID="IT.RE.RECSTATE" Mandatory="No" OrderNumber="18"
                    Role="Record Qualifier"/>
                <ItemRef ItemOID="IT.RE.REBLFL" Mandatory="No" OrderNumber="19"
                    Role="Record Qualifier"/>
                <ItemRef ItemOID="IT.RE.REDRVFL" Mandatory="No" OrderNumber="20"
                    Role="Record Qualifier"/>
                <ItemRef ItemOID="IT.RE.REEXCLFL" Mandatory="No" OrderNumber="21"
                    Role="Record Qualifier"/>
                <ItemRef ItemOID="IT.RE.REREASEX" Mandatory="No" OrderNumber="22"
                    Role="Record Qualifier"/>
                <ItemRef ItemOID="IT.RE.REUSCHFL" Mandatory="No" OrderNumber="23"
                    Role="Record Qualifier"/>
                <ItemRef ItemOID="IT.RE.REDTC" Mandatory="No" OrderNumber="24" Role="Timing"/>
                <ItemRef ItemOID="IT.RE.REENDTC" Mandatory="No" OrderNumber="25" Role="Timing"/>
                <ItemRef ItemOID="IT.RE.REDY" Mandatory="No" OrderNumber="26" Role="Timing"/>
                <ItemRef ItemOID="IT.RE.REENDY" Mandatory="No" OrderNumber="27" Role="Timing"/>
                <ItemRef ItemOID="IT.RE.RENOMDY" Mandatory="No" OrderNumber="28" Role="Timing"/>
                <ItemRef ItemOID="IT.RE.RENOMLBL" Mandatory="No" OrderNumber="29" Role="Timing"/>
                <ItemRef ItemOID="IT.RE.RETPT" Mandatory="No" OrderNumber="30" Role="Timing"/>
                <ItemRef ItemOID="IT.RE.RETPTNUM" Mandatory="No" OrderNumber="31" Role="Timing"/>
                <ItemRef ItemOID="IT.RE.REELTM" Mandatory="No" OrderNumber="32" Role="Timing"/>
                <ItemRef ItemOID="IT.RE.RETPTREF" Mandatory="No" OrderNumber="33" Role="Timing"/>
                <ItemRef ItemOID="IT.RE.RERFTDTC" Mandatory="No" OrderNumber="34" Role="Timing"/>
                <ItemRef ItemOID="IT.RE.REEVLINT" Mandatory="No" OrderNumber="35" Role="Timing"/>
                <ItemRef ItemOID="IT.RE.RESTINT" Mandatory="No" OrderNumber="36" Role="Timing"/>
                <ItemRef ItemOID="IT.RE.REENINT" Mandatory="No" OrderNumber="37" Role="Timing"/>
                <def:Class Name="FINDINGS"/>
            </ItemGroupDef>
            <ItemGroupDef Domain="DM" Name="DM" OID="IGD.DM" Purpose="Tabulation" Repeating="No"
                def:Structure="One record per subject">
                <Description>
                    <TranslatedText xml:lang="en">Demographics</TranslatedText>
                </Description>
                <ItemRef ItemOID="IT.DM.STUDYID" Mandatory="No" OrderNumber="1" Role="Identifier"/>
                <ItemRef ItemOID="IT.DM.DOMAIN" Mandatory="No" OrderNumber="2" Role="Identifier"/>
                <ItemRef ItemOID="IT.DM.USUBJID" Mandatory="No" OrderNumber="3" Role="Identifier"/>
                <ItemRef ItemOID="IT.DM.SUBJID" Mandatory="No" OrderNumber="4" Role="Topic"/>
                <ItemRef ItemOID="IT.DM.RFSTDTC" Mandatory="No" OrderNumber="5"
                    Role="Record Qualifier"/>
                <ItemRef ItemOID="IT.DM.RFENDTC" Mandatory="No" OrderNumber="6"
                    Role="Record Qualifier"/>
                <ItemRef ItemOID="IT.DM.RFXSTDTC" Mandatory="No" OrderNumber="7"
                    Role="Record Qualifier"/>
                <ItemRef ItemOID="IT.DM.RFXENDTC" Mandatory="No" OrderNumber="8"
                    Role="Record Qualifier"/>
                <ItemRef ItemOID="IT.DM.SITEID" Mandatory="No" OrderNumber="9"
                    Role="Record Qualifier"/>
                <ItemRef ItemOID="IT.DM.BRTHDTC" Mandatory="No" OrderNumber="10"
                    Role="Record Qualifier"/>
                <ItemRef ItemOID="IT.DM.AGE" Mandatory="No" OrderNumber="11" Role="Record Qualifier"/>
                <ItemRef ItemOID="IT.DM.AGETXT" Mandatory="No" OrderNumber="12"
                    Role="Record Qualifier"/>
                <ItemRef ItemOID="IT.DM.AGEU" Mandatory="No" OrderNumber="13"
                    Role="Variable Qualifier"/>
                <ItemRef ItemOID="IT.DM.SEX" Mandatory="No" OrderNumber="14" Role="Record Qualifier"/>
                <ItemRef ItemOID="IT.DM.SPECIES" Mandatory="No" OrderNumber="15"
                    Role="Record Qualifier"/>
                <ItemRef ItemOID="IT.DM.STRAIN" Mandatory="No" OrderNumber="16"
                    Role="Record Qualifier"/>
                <ItemRef ItemOID="IT.DM.SBSTRAIN" Mandatory="No" OrderNumber="17"
                    Role="Record Qualifier"/>
                <ItemRef ItemOID="IT.DM.ARMCD" Mandatory="No" OrderNumber="18"
                    Role="Record Qualifier"/>
                <ItemRef ItemOID="IT.DM.ARM" Mandatory="No" OrderNumber="19"
                    Role="Synonym Qualifier"/>
                <ItemRef ItemOID="IT.DM.SETCD" Mandatory="No" OrderNumber="20"
                    Role="Record Qualifier"/>
                <def:Class Name="SPECIAL PURPOSE"/>
            </ItemGroupDef>
            <ItemGroupDef Domain="CO" Name="CO" OID="IGD.CO" Purpose="Tabulation" Repeating="No"
                def:Structure="One record per comment">
                <Description>
                    <TranslatedText xml:lang="en">Comments</TranslatedText>
                </Description>
                <ItemRef ItemOID="IT.CO.STUDYID" Mandatory="No" OrderNumber="1" Role="Identifier"/>
                <ItemRef ItemOID="IT.CO.DOMAIN" Mandatory="No" OrderNumber="2" Role="Identifier"/>
                <ItemRef ItemOID="IT.CO.RDOMAIN" Mandatory="No" OrderNumber="3"
                    Role="Record Qualifier"/>
                <ItemRef ItemOID="IT.CO.USUBJID" Mandatory="No" OrderNumber="4" Role="Identifier"/>
                <ItemRef ItemOID="IT.CO.POOLID" Mandatory="No" OrderNumber="5" Role="Identifier"/>
                <ItemRef ItemOID="IT.CO.COSEQ" Mandatory="No" OrderNumber="6" Role="Identifier"/>
                <ItemRef ItemOID="IT.CO.IDVAR" Mandatory="No" OrderNumber="7"
                    Role="Record Qualifier"/>
                <ItemRef ItemOID="IT.CO.IDVARVAL" Mandatory="No" OrderNumber="8"
                    Role="Record Qualifier"/>
                <ItemRef ItemOID="IT.CO.COREF" Mandatory="No" OrderNumber="9"
                    Role="Record Qualifier"/>
                <ItemRef ItemOID="IT.CO.COVAL" Mandatory="No" OrderNumber="10" Role="Topic"/>
                <ItemRef ItemOID="IT.CO.COEVAL" Mandatory="No" OrderNumber="11"
                    Role="Record Qualifier"/>
                <ItemRef ItemOID="IT.CO.CODTC" Mandatory="No" OrderNumber="12" Role="Timing"/>
                <ItemRef ItemOID="IT.CO.CODY" Mandatory="No" OrderNumber="13" Role="Timing"/>
                <def:Class Name="SPECIAL PURPOSE"/>
            </ItemGroupDef>
            <ItemGroupDef Domain="SE" Name="SE" OID="IGD.SE" Purpose="Tabulation" Repeating="No"
                def:Structure="One record per element experienced per subject">
                <Description>
                    <TranslatedText xml:lang="en">Subject Elements</TranslatedText>
                </Description>
                <ItemRef ItemOID="IT.SE.STUDYID" Mandatory="No" OrderNumber="1" Role="Identifier"/>
                <ItemRef ItemOID="IT.SE.DOMAIN" Mandatory="No" OrderNumber="2" Role="Identifier"/>
                <ItemRef ItemOID="IT.SE.USUBJID" Mandatory="No" OrderNumber="3" Role="Identifier"/>
                <ItemRef ItemOID="IT.SE.SESEQ" Mandatory="No" OrderNumber="4" Role="Identifier"/>
                <ItemRef ItemOID="IT.SE.ETCD" Mandatory="No" OrderNumber="5" Role="Topic"/>
                <ItemRef ItemOID="IT.SE.ELEMENT" Mandatory="No" OrderNumber="6"
                    Role="Synonym Qualifier"/>
                <ItemRef ItemOID="IT.SE.SESTDTC" Mandatory="No" OrderNumber="7" Role="Timing"/>
                <ItemRef ItemOID="IT.SE.SEENDTC" Mandatory="No" OrderNumber="8" Role="Timing"/>
                <ItemRef ItemOID="IT.SE.SEUPDES" Mandatory="No" OrderNumber="9"
                    Role="Synonym Qualifier"/>
                <def:Class Name="SPECIAL PURPOSE"/>
            </ItemGroupDef>
            <ItemGroupDef Domain="TE" Name="TE" OID="IGD.TE" Purpose="Tabulation" Repeating="No"
                def:Structure="One record per planned Element">
                <Description>
                    <TranslatedText xml:lang="en">Trial Elements</TranslatedText>
                </Description>
                <ItemRef ItemOID="IT.TE.STUDYID" Mandatory="No" OrderNumber="1" Role="Identifier"/>
                <ItemRef ItemOID="IT.TE.DOMAIN" Mandatory="No" OrderNumber="2" Role="Identifier"/>
                <ItemRef ItemOID="IT.TE.ETCD" Mandatory="No" OrderNumber="3" Role="Topic"/>
                <ItemRef ItemOID="IT.TE.ELEMENT" Mandatory="No" OrderNumber="4"
                    Role="Synonym Qualifier"/>
                <ItemRef ItemOID="IT.TE.TESTRL" Mandatory="No" OrderNumber="5" Role="Rule"/>
                <ItemRef ItemOID="IT.TE.TEENRL" Mandatory="No" OrderNumber="6" Role="Rule"/>
                <ItemRef ItemOID="IT.TE.TEDUR" Mandatory="No" OrderNumber="7" Role="Timing"/>
                <def:Class Name="TRIAL DESIGN"/>
            </ItemGroupDef>
            <ItemGroupDef Domain="TA" Name="TA" OID="IGD.TA" Purpose="Tabulation" Repeating="No"
                def:Structure="One record per planned Element per Arm">
                <Description>
                    <TranslatedText xml:lang="en">Trial Arms</TranslatedText>
                </Description>
                <ItemRef ItemOID="IT.TA.STUDYID" Mandatory="No" OrderNumber="1" Role="Identifier"/>
                <ItemRef ItemOID="IT.TA.DOMAIN" Mandatory="No" OrderNumber="2" Role="Identifier"/>
                <ItemRef ItemOID="IT.TA.ARMCD" Mandatory="No" OrderNumber="3" Role="Topic"/>
                <ItemRef ItemOID="IT.TA.ARM" Mandatory="No" OrderNumber="4" Role="Synonym Qualifier"/>
                <ItemRef ItemOID="IT.TA.TAETORD" Mandatory="No" OrderNumber="5" Role="Timing"/>
                <ItemRef ItemOID="IT.TA.ETCD" Mandatory="No" OrderNumber="6" Role="Record Qualifier"/>
                <ItemRef ItemOID="IT.TA.ELEMENT" Mandatory="No" OrderNumber="7"
                    Role="Synonym Qualifier"/>
                <ItemRef ItemOID="IT.TA.TABRANCH" Mandatory="No" OrderNumber="8" Role="Rule"/>
                <ItemRef ItemOID="IT.TA.TATRANS" Mandatory="No" OrderNumber="9" Role="Rule"/>
                <ItemRef ItemOID="IT.TA.EPOCH" Mandatory="No" OrderNumber="10" Role="Timing"/>
                <def:Class Name="TRIAL DESIGN"/>
            </ItemGroupDef>
            <ItemGroupDef Domain="TX" Name="TX" OID="IGD.TX" Purpose="Tabulation" Repeating="No"
                def:Structure="One record per Trial Set parameter per Trial Set">
                <Description>
                    <TranslatedText xml:lang="en">Trial Sets</TranslatedText>
                </Description>
                <ItemRef ItemOID="IT.TX.STUDYID" Mandatory="No" OrderNumber="1" Role="Identifier"/>
                <ItemRef ItemOID="IT.TX.DOMAIN" Mandatory="No" OrderNumber="2" Role="Identifier"/>
                <ItemRef ItemOID="IT.TX.SETCD" Mandatory="No" OrderNumber="3" Role="Identifier"/>
                <ItemRef ItemOID="IT.TX.SET" Mandatory="No" OrderNumber="4" Role="Synonym Qualifier"/>
                <ItemRef ItemOID="IT.TX.TXSEQ" Mandatory="No" OrderNumber="5" Role="Identifier"/>
                <ItemRef ItemOID="IT.TX.TXPARMCD" Mandatory="No" OrderNumber="6" Role="Topic"/>
                <ItemRef ItemOID="IT.TX.TXPARM" Mandatory="No" OrderNumber="7"
                    Role="Synonym Qualifier"/>
                <ItemRef ItemOID="IT.TX.TXVAL" Mandatory="No" OrderNumber="8"
                    Role="Result Qualifier"/>
                <def:Class Name="TRIAL DESIGN"/>
            </ItemGroupDef>
            <ItemGroupDef Domain="TS" Name="TS" OID="IGD.TS" Purpose="Tabulation" Repeating="No"
                def:Structure="One record per Trial Summary parameter value">
                <Description>
                    <TranslatedText xml:lang="en">Trial Summary</TranslatedText>
                </Description>
                <ItemRef ItemOID="IT.TS.STUDYID" Mandatory="No" OrderNumber="1" Role="Identifier"/>
                <ItemRef ItemOID="IT.TS.DOMAIN" Mandatory="No" OrderNumber="2" Role="Identifier"/>
                <ItemRef ItemOID="IT.TS.TSSEQ" Mandatory="No" OrderNumber="3" Role="Identifier"/>
                <ItemRef ItemOID="IT.TS.TSGRPID" Mandatory="No" OrderNumber="4" Role="Identifier"/>
                <ItemRef ItemOID="IT.TS.TSPARMCD" Mandatory="No" OrderNumber="5" Role="Topic"/>
                <ItemRef ItemOID="IT.TS.TSPARM" Mandatory="No" OrderNumber="6"
                    Role="Synonym Qualifier"/>
                <ItemRef ItemOID="IT.TS.TSVAL" Mandatory="No" OrderNumber="7"
                    Role="Result Qualifier"/>
                <ItemRef ItemOID="IT.TS.TSVALNF" Mandatory="No" OrderNumber="8"
                    Role="Record Qualifier"/>
                <def:Class Name="TRIAL DESIGN"/>
            </ItemGroupDef>
            <ItemGroupDef Domain="RELREC" Name="RELREC" OID="IGD.RELREC" Purpose="Tabulation"
                Repeating="No"
                def:Structure="One record per related record, related group of records, or related domain">
                <Description>
                    <TranslatedText xml:lang="en">Related Records</TranslatedText>
                </Description>
                <ItemRef ItemOID="IT.RELREC.STUDYID" Mandatory="No" OrderNumber="1"/>
                <ItemRef ItemOID="IT.RELREC.RDOMAIN" Mandatory="No" OrderNumber="2"/>
                <ItemRef ItemOID="IT.RELREC.USUBJID" Mandatory="No" OrderNumber="3"/>
                <ItemRef ItemOID="IT.RELREC.POOLID" Mandatory="No" OrderNumber="4"/>
                <ItemRef ItemOID="IT.RELREC.IDVAR" Mandatory="No" OrderNumber="5"/>
                <ItemRef ItemOID="IT.RELREC.IDVARVAL" Mandatory="No" OrderNumber="6"/>
                <ItemRef ItemOID="IT.RELREC.RELTYPE" Mandatory="No" OrderNumber="7"/>
                <ItemRef ItemOID="IT.RELREC.RELID" Mandatory="No" OrderNumber="8"/>
                <def:Class Name="RELATIONSHIP"/>
            </ItemGroupDef>
            <ItemGroupDef Domain="SUPPQUAL" Name="SUPPQUAL" OID="IGD.SUPPQUAL" Purpose="Tabulation"
                Repeating="No"
                def:Structure="One record per supplemental qualifier per related parent domain record(s)">
                <Description>
                    <TranslatedText xml:lang="en">Supplemental Qualifiers for (domain
                        name)</TranslatedText>
                </Description>
                <ItemRef ItemOID="IT.SUPPQUAL.STUDYID" Mandatory="No" OrderNumber="1"/>
                <ItemRef ItemOID="IT.SUPPQUAL.RDOMAIN" Mandatory="No" OrderNumber="2"/>
                <ItemRef ItemOID="IT.SUPPQUAL.USUBJID" Mandatory="No" OrderNumber="3"/>
                <ItemRef ItemOID="IT.SUPPQUAL.POOLID" Mandatory="No" OrderNumber="4"/>
                <ItemRef ItemOID="IT.SUPPQUAL.IDVAR" Mandatory="No" OrderNumber="5"/>
                <ItemRef ItemOID="IT.SUPPQUAL.IDVARVAL" Mandatory="No" OrderNumber="6"/>
                <ItemRef ItemOID="IT.SUPPQUAL.QNAM" Mandatory="No" OrderNumber="7"/>
                <ItemRef ItemOID="IT.SUPPQUAL.QLABEL" Mandatory="No" OrderNumber="8"/>
                <ItemRef ItemOID="IT.SUPPQUAL.QVAL" Mandatory="No" OrderNumber="9"/>
                <ItemRef ItemOID="IT.SUPPQUAL.QORIG" Mandatory="No" OrderNumber="10"/>
                <ItemRef ItemOID="IT.SUPPQUAL.QEVAL" Mandatory="No" OrderNumber="11"/>
                <def:Class Name="RELATIONSHIP"/>
            </ItemGroupDef>
            <ItemGroupDef Domain="POOLDEF" Name="POOLDEF" OID="IGD.POOLDEF" Purpose="Tabulation"
                Repeating="No" def:Structure="One record per subject per pool">
                <Description>
                    <TranslatedText xml:lang="en">Pool Definition</TranslatedText>
                </Description>
                <ItemRef ItemOID="IT.POOLDEF.STUDYID" Mandatory="No" OrderNumber="1"
                    Role="Identifier"/>
                <ItemRef ItemOID="IT.POOLDEF.POOLID" Mandatory="No" OrderNumber="2"
                    Role="Identifier"/>
                <ItemRef ItemOID="IT.POOLDEF.USUBJID" Mandatory="No" OrderNumber="3"
                    Role="Identifier"/>
                <def:Class Name="RELATIONSHIP"/>
            </ItemGroupDef>
            <ItemDef DataType="text" Name="STUDYID" OID="IT.EX.STUDYID" mdr:Core="Req"
                mdr:SubmissionDataType="Char">
                <Description>
                    <TranslatedText xml:lang="en">Study Identifier</TranslatedText>
                </Description>
                <mdr:CDISCNotes>
                    <TranslatedText xml:lang="en">Unique identifier for a study.</TranslatedText>
                </mdr:CDISCNotes>
            </ItemDef>
            <ItemDef DataType="text" Name="DOMAIN" OID="IT.EX.DOMAIN" mdr:Core="Req"
                mdr:SubmissionDataType="Char">
                <Description>
                    <TranslatedText xml:lang="en">Domain Abbreviation</TranslatedText>
                </Description>
                <CodeListRef CodeListOID="CL.C66734.EX"/>
                <mdr:CDISCNotes>
                    <TranslatedText xml:lang="en">Two-character abbreviation for the
                        domain.</TranslatedText>
                </mdr:CDISCNotes>
            </ItemDef>
            <ItemDef DataType="text" Name="USUBJID" OID="IT.EX.USUBJID" mdr:Core="Exp"
                mdr:SubmissionDataType="Char">
                <Description>
                    <TranslatedText xml:lang="en">Unique Subject Identifier</TranslatedText>
                </Description>
                <mdr:CDISCNotes>
                    <TranslatedText xml:lang="en">Identifier used to uniquely identify a subject
                        across all studies for all applications or submissions involving the
                        product. Either USUBJID or POOLID must be populated.</TranslatedText>
                </mdr:CDISCNotes>
            </ItemDef>
            <ItemDef DataType="text" Name="POOLID" OID="IT.EX.POOLID" mdr:Core="Perm"
                mdr:SubmissionDataType="Char">
                <Description>
                    <TranslatedText xml:lang="en">Pool Identifier</TranslatedText>
                </Description>
                <mdr:CDISCNotes>
                    <TranslatedText xml:lang="en">Identifier used for pooling subjects to assign a
                        single finding to multiple subjects. If POOLID is entered, POOLDEF records
                        must exist for each subject and the USUBJID must be null. Either USUBJID or
                        POOLID must be populated.</TranslatedText>
                </mdr:CDISCNotes>
            </ItemDef>
            <ItemDef DataType="text" Name="FOCID" OID="IT.EX.FOCID" mdr:Core="Perm"
                mdr:SubmissionDataType="Char">
                <Description>
                    <TranslatedText xml:lang="en">Focus of Study-Specific Interest</TranslatedText>
                </Description>
                <mdr:CDISCNotes>
                    <TranslatedText xml:lang="en">Identification of a focus of study-specific
                        interest on or within a subject or specimen as defined in the protocol for
                        which a measurement, test, or examination was performed, such as a drug
                        application site, e.g., "Injection site 1," "Biopsy site 1," "Treated site
                        1." the value in this variable should have inherent semantic
                        value.</TranslatedText>
                </mdr:CDISCNotes>
            </ItemDef>
            <ItemDef DataType="double" Name="EXSEQ" OID="IT.EX.EXSEQ" mdr:Core="Req"
                mdr:SubmissionDataType="Num">
                <Description>
                    <TranslatedText xml:lang="en">Sequence Number</TranslatedText>
                </Description>
                <mdr:CDISCNotes>
                    <TranslatedText xml:lang="en">The sequence number must be unique for each record
                        within a USUBJID or POOLID, whichever applies for the
                        record.</TranslatedText>
                </mdr:CDISCNotes>
            </ItemDef>
            <ItemDef DataType="text" Name="EXTRT" OID="IT.EX.EXTRT" mdr:Core="Req"
                mdr:SubmissionDataType="Char">
                <Description>
                    <TranslatedText xml:lang="en">Name of Actual Treatment</TranslatedText>
                </Description>
                <mdr:CDISCNotes>
                    <TranslatedText xml:lang="en">Name of the treatment, as defined by the
                        protocol.</TranslatedText>
                </mdr:CDISCNotes>
            </ItemDef>
            <ItemDef DataType="double" Name="EXDOSE" OID="IT.EX.EXDOSE" mdr:Core="Exp"
                mdr:SubmissionDataType="Num">
                <Description>
                    <TranslatedText xml:lang="en">Dose per Administration</TranslatedText>
                </Description>
                <mdr:CDISCNotes>
                    <TranslatedText xml:lang="en">Amount of treatment administered.</TranslatedText>
                </mdr:CDISCNotes>
            </ItemDef>
            <ItemDef DataType="text" Name="EXDOSTXT" OID="IT.EX.EXDOSTXT" mdr:Core="Perm"
                mdr:SubmissionDataType="Char">
                <Description>
                    <TranslatedText xml:lang="en">Dose Description</TranslatedText>
                </Description>
                <mdr:CDISCNotes>
                    <TranslatedText xml:lang="en">If the amount of treatment administered cannot be
                        represented as a number and populated in EXDOSE, this field is used to
                        describe the amount of treatment administered. Example:
                        200-400.</TranslatedText>
                </mdr:CDISCNotes>
            </ItemDef>
            <ItemDef DataType="text" Name="EXDOSU" OID="IT.EX.EXDOSU" mdr:Core="Exp"
                mdr:SubmissionDataType="Char">
                <Description>
                    <TranslatedText xml:lang="en">Dose Units</TranslatedText>
                </Description>
                <CodeListRef CodeListOID="CL.C71620"/>
                <mdr:CDISCNotes>
                    <TranslatedText xml:lang="en">Units for EXDOSE or EXDOSTXT. Examples: ng, mg, or
                        mg/kg.</TranslatedText>
                </mdr:CDISCNotes>
            </ItemDef>
            <ItemDef DataType="text" Name="EXDOSFRM" OID="IT.EX.EXDOSFRM" mdr:Core="Exp"
                mdr:SubmissionDataType="Char">
                <Description>
                    <TranslatedText xml:lang="en">Dose Form</TranslatedText>
                </Description>
                <CodeListRef CodeListOID="CL.C66726"/>
                <mdr:CDISCNotes>
                    <TranslatedText xml:lang="en">Dose form for treatment (form administered).
                        Examples: TABLET, LOTION.</TranslatedText>
                </mdr:CDISCNotes>
            </ItemDef>
            <ItemDef DataType="text" Name="EXDOSFRQ" OID="IT.EX.EXDOSFRQ" mdr:Core="Req"
                mdr:SubmissionDataType="Char">
                <Description>
                    <TranslatedText xml:lang="en">Dosing Frequency Per Interval</TranslatedText>
                </Description>
                <CodeListRef CodeListOID="CL.C71113"/>
                <mdr:CDISCNotes>
                    <TranslatedText xml:lang="en">Usually expressed as the number of repeated
                        administrations of EXDOSE within a specific time period. Examples: QD (once
                        daily), BID (2x daily).</TranslatedText>
                </mdr:CDISCNotes>
            </ItemDef>
            <ItemDef DataType="text" Name="EXROUTE" OID="IT.EX.EXROUTE" mdr:Core="Req"
                mdr:SubmissionDataType="Char">
                <Description>
                    <TranslatedText xml:lang="en">Route of Administration</TranslatedText>
                </Description>
                <CodeListRef CodeListOID="CL.C66729"/>
                <mdr:CDISCNotes>
                    <TranslatedText xml:lang="en">Route of administration for EXTRT. Examples: ORAL
                        GAVAGE, DERMAL, INTRAVENOUS.</TranslatedText>
                </mdr:CDISCNotes>
            </ItemDef>
            <ItemDef DataType="text" Name="EXLOT" OID="IT.EX.EXLOT" mdr:Core="Exp"
                mdr:SubmissionDataType="Char">
                <Description>
                    <TranslatedText xml:lang="en">Lot Number</TranslatedText>
                </Description>
                <mdr:CDISCNotes>
                    <TranslatedText xml:lang="en">Lot Number(s) or Batch Number(s) of the EXTRT test
                        article. If mixed lots of the test article are administered during the same
                        constant dosing interval, this should be represented as "Lot A;Lot B." Mixed
                        lots are produced by the mixing of Lots a and B of the test article into one
                        solution, suspension, or dietary food concentration. If no test article was
                        administered, EXLOT should be null.</TranslatedText>
                </mdr:CDISCNotes>
            </ItemDef>
            <ItemDef DataType="text" Name="EXLOC" OID="IT.EX.EXLOC" mdr:Core="Perm"
                mdr:SubmissionDataType="Char">
                <Description>
                    <TranslatedText xml:lang="en">Location of Dose Administration</TranslatedText>
                </Description>
                <mdr:CDISCNotes>
                    <TranslatedText xml:lang="en">Specifies anatomical location (site) of
                        administration. Example: LEFT HINDLIMB for a topical application or an
                        injection site number. Each administration will require its own
                        record.</TranslatedText>
                </mdr:CDISCNotes>
            </ItemDef>
            <ItemDef DataType="text" Name="EXMETHOD" OID="IT.EX.EXMETHOD" mdr:Core="Perm"
                mdr:SubmissionDataType="Char">
                <Description>
                    <TranslatedText xml:lang="en">Method of Administration</TranslatedText>
                </Description>
                <mdr:CDISCNotes>
                    <TranslatedText xml:lang="en">Method of the dose administration. Example:
                        INFUSION.</TranslatedText>
                </mdr:CDISCNotes>
            </ItemDef>
            <ItemDef DataType="text" Name="EXTRTV" OID="IT.EX.EXTRTV" mdr:Core="Exp"
                mdr:SubmissionDataType="Char">
                <Description>
                    <TranslatedText xml:lang="en">Treatment Vehicle</TranslatedText>
                </Description>
                <mdr:CDISCNotes>
                    <TranslatedText xml:lang="en">Describes vehicle used for treatment. Example:
                        SALINE.</TranslatedText>
                </mdr:CDISCNotes>
            </ItemDef>
            <ItemDef DataType="double" Name="EXVAMT" OID="IT.EX.EXVAMT" mdr:Core="Perm"
                mdr:SubmissionDataType="Num">
                <Description>
                    <TranslatedText xml:lang="en">Amount Administered</TranslatedText>
                </Description>
                <mdr:CDISCNotes>
                    <TranslatedText xml:lang="en">The amount (volume or weight) of the treatment
                        compound plus vehicle administered in a single dose. This is not to be
                        confused with EXDOSE. EXDOSE refers to the amount of test material
                        administered to the subject.</TranslatedText>
                </mdr:CDISCNotes>
            </ItemDef>
            <ItemDef DataType="text" Name="EXVAMTU" OID="IT.EX.EXVAMTU" mdr:Core="Perm"
                mdr:SubmissionDataType="Char">
                <Description>
                    <TranslatedText xml:lang="en">Amount Administered Units</TranslatedText>
                </Description>
                <CodeListRef CodeListOID="CL.C71620"/>
                <mdr:CDISCNotes>
                    <TranslatedText xml:lang="en">Units for EXVAMT (per dose
                        administration).</TranslatedText>
                </mdr:CDISCNotes>
            </ItemDef>
            <ItemDef DataType="text" Name="EXADJ" OID="IT.EX.EXADJ" mdr:Core="Perm"
                mdr:SubmissionDataType="Char">
                <Description>
                    <TranslatedText xml:lang="en">Reason for Dose Adjustment</TranslatedText>
                </Description>
                <mdr:CDISCNotes>
                    <TranslatedText xml:lang="en">Describes reason or explanation of why a dose is
                        adjusted - used only when an adjustment is represented in EX. May be used
                        for variations from protocol-specified doses or changes from expected doses
                        (e.g., when dose is adjusted due to toxicity).</TranslatedText>
                </mdr:CDISCNotes>
            </ItemDef>
            <ItemDef DataType="text" Name="EXSTDTC" OID="IT.EX.EXSTDTC" mdr:Core="Exp"
                mdr:SubmissionDataType="Char">
                <Description>
                    <TranslatedText xml:lang="en">Start Date/Time of Treatment</TranslatedText>
                </Description>
                <mdr:CDISCNotes>
                    <TranslatedText xml:lang="en">Date/Time when administration of the treatment
                        indicated by EXTRT and EXDOSE began, in ISO 8601 format.</TranslatedText>
                </mdr:CDISCNotes>
            </ItemDef>
            <ItemDef DataType="text" Name="EXENDTC" OID="IT.EX.EXENDTC" mdr:Core="Perm"
                mdr:SubmissionDataType="Char">
                <Description>
                    <TranslatedText xml:lang="en">End Date/Time of Treatment</TranslatedText>
                </Description>
                <mdr:CDISCNotes>
                    <TranslatedText xml:lang="en">Date/Time when administration of the treatment
                        indicated by EXTRT and EXDOSE ended, in ISO 8601 format.</TranslatedText>
                </mdr:CDISCNotes>
            </ItemDef>
            <ItemDef DataType="double" Name="EXSTDY" OID="IT.EX.EXSTDY" mdr:Core="Perm"
                mdr:SubmissionDataType="Num">
                <Description>
                    <TranslatedText xml:lang="en">Study Day of Start of Treatment</TranslatedText>
                </Description>
                <mdr:CDISCNotes>
                    <TranslatedText xml:lang="en">Study day when administration of the treatment
                        began, in integer days. The algorithm for calculations must be relative to
                        the sponsor-defined RFSTDTC variable in the Demographics (DM)
                        domain.</TranslatedText>
                </mdr:CDISCNotes>
            </ItemDef>
            <ItemDef DataType="double" Name="EXENDY" OID="IT.EX.EXENDY" mdr:Core="Perm"
                mdr:SubmissionDataType="Num">
                <Description>
                    <TranslatedText xml:lang="en">Study Day of End of Treatment</TranslatedText>
                </Description>
                <mdr:CDISCNotes>
                    <TranslatedText xml:lang="en">Study day when administration of the treatment
                        ended, in integer days. The algorithm for calculations must be relative to
                        the sponsor-defined RFSTDTC variable in the Demographics (DM)
                        domain.</TranslatedText>
                </mdr:CDISCNotes>
            </ItemDef>
            <ItemDef DataType="text" Name="EXDUR" OID="IT.EX.EXDUR" mdr:Core="Perm"
                mdr:SubmissionDataType="Char">
                <Description>
                    <TranslatedText xml:lang="en">Duration of Treatment</TranslatedText>
                </Description>
                <mdr:CDISCNotes>
                    <TranslatedText xml:lang="en">Duration and unit of time for a continuous
                        treatment. This may be used to denote the length of an infusion (e.g., PT10M
                        to indicate 10 minutes).</TranslatedText>
                </mdr:CDISCNotes>
            </ItemDef>
            <ItemDef DataType="text" Name="EXTPT" OID="IT.EX.EXTPT" mdr:Core="Perm"
                mdr:SubmissionDataType="Char">
                <Description>
                    <TranslatedText xml:lang="en">Planned Time Point Name</TranslatedText>
                </Description>
                <mdr:CDISCNotes>
                    <TranslatedText xml:lang="en">Text description of time when a dose should be
                        given. Note: This may be represented as an elapsed time relative to a fixed
                        reference point, such as time of last dose. See EXTPTNUM and
                        EXTPTREF.</TranslatedText>
                </mdr:CDISCNotes>
            </ItemDef>
            <ItemDef DataType="double" Name="EXTPTNUM" OID="IT.EX.EXTPTNUM" mdr:Core="Perm"
                mdr:SubmissionDataType="Num">
                <Description>
                    <TranslatedText xml:lang="en">Planned Time Point Number</TranslatedText>
                </Description>
                <mdr:CDISCNotes>
                    <TranslatedText xml:lang="en">Numerical version of EXTPT to aid in
                        sorting.</TranslatedText>
                </mdr:CDISCNotes>
            </ItemDef>
            <ItemDef DataType="text" Name="EXELTM" OID="IT.EX.EXELTM" mdr:Core="Perm"
                mdr:SubmissionDataType="Char">
                <Description>
                    <TranslatedText xml:lang="en">Planned Elapsed Time from Time Point
                        Ref</TranslatedText>
                </Description>
                <mdr:CDISCNotes>
                    <TranslatedText xml:lang="en">Planned elapsed time (in ISO 8601 format) relative
                        to the planned fixed reference (EXTPTREF). This variable is useful where
                        there are repetitive measures. Not a clock time or a date time variable.
                        Represented as an ISO 8601 duration. Examples: "- PT15M" to represent the
                        period of 15 minutes prior to the reference point indicated by EXTPTREF, or
                        "PT8H" to represent the period of 8 hours after the reference point
                        indicated by EXTPTREF.</TranslatedText>
                </mdr:CDISCNotes>
            </ItemDef>
            <ItemDef DataType="text" Name="EXTPTREF" OID="IT.EX.EXTPTREF" mdr:Core="Perm"
                mdr:SubmissionDataType="Char">
                <Description>
                    <TranslatedText xml:lang="en">Time Point Reference</TranslatedText>
                </Description>
                <mdr:CDISCNotes>
                    <TranslatedText xml:lang="en">Name of the fixed reference point referred to by
                        EXELTM, if used for EXTPTNUM, and EXTPT. It is recommended that EXTPTREF be
                        as descriptive as possible so the reference time point can be inferred
                        without looking at other variables. Examples: Previous dose, previous
                        feed.</TranslatedText>
                </mdr:CDISCNotes>
            </ItemDef>
            <ItemDef DataType="text" Name="EXRFTDTC" OID="IT.EX.EXRFTDTC" mdr:Core="Perm"
                mdr:SubmissionDataType="Char">
                <Description>
                    <TranslatedText xml:lang="en">Date/Time of Reference Time Point</TranslatedText>
                </Description>
                <mdr:CDISCNotes>
                    <TranslatedText xml:lang="en">Date/Time of the reference time point,
                        EXTPTREF.</TranslatedText>
                </mdr:CDISCNotes>
            </ItemDef>
            <ItemDef DataType="text" Name="STUDYID" OID="IT.DS.STUDYID" mdr:Core="Req"
                mdr:SubmissionDataType="Char">
                <Description>
                    <TranslatedText xml:lang="en">Study Identifier</TranslatedText>
                </Description>
                <mdr:CDISCNotes>
                    <TranslatedText xml:lang="en">Unique identifier for a study.</TranslatedText>
                </mdr:CDISCNotes>
            </ItemDef>
            <ItemDef DataType="text" Name="DOMAIN" OID="IT.DS.DOMAIN" mdr:Core="Req"
                mdr:SubmissionDataType="Char">
                <Description>
                    <TranslatedText xml:lang="en">Domain Abbreviation</TranslatedText>
                </Description>
                <CodeListRef CodeListOID="CL.C66734.DS"/>
                <mdr:CDISCNotes>
                    <TranslatedText xml:lang="en">Two-character abbreviation for the
                        domain.</TranslatedText>
                </mdr:CDISCNotes>
            </ItemDef>
            <ItemDef DataType="text" Name="USUBJID" OID="IT.DS.USUBJID" mdr:Core="Req"
                mdr:SubmissionDataType="Char">
                <Description>
                    <TranslatedText xml:lang="en">Unique Subject Identifier</TranslatedText>
                </Description>
                <mdr:CDISCNotes>
                    <TranslatedText xml:lang="en">Identifier used to uniquely identify a subject
                        across all studies for all applications or submissions involving the
                        product.</TranslatedText>
                </mdr:CDISCNotes>
            </ItemDef>
            <ItemDef DataType="double" Name="DSSEQ" OID="IT.DS.DSSEQ" mdr:Core="Req"
                mdr:SubmissionDataType="Num">
                <Description>
                    <TranslatedText xml:lang="en">Sequence Number</TranslatedText>
                </Description>
                <mdr:CDISCNotes>
                    <TranslatedText xml:lang="en">Sequence number given to ensure uniqueness of
                        subject records within a domain. May be any valid number.</TranslatedText>
                </mdr:CDISCNotes>
            </ItemDef>
            <ItemDef DataType="text" Name="DSTERM" OID="IT.DS.DSTERM" mdr:Core="Req"
                mdr:SubmissionDataType="Char">
                <Description>
                    <TranslatedText xml:lang="en">Reported Term for the Disposition
                        Event</TranslatedText>
                </Description>
                <mdr:CDISCNotes>
                    <TranslatedText xml:lang="en">DSTERM is the original term recorded for subject
                        disposition. DSTERM is not under controlled terminology, but should be
                        mapped to DSDECOD.</TranslatedText>
                </mdr:CDISCNotes>
            </ItemDef>
            <ItemDef DataType="text" Name="DSDECOD" OID="IT.DS.DSDECOD" mdr:Core="Req"
                mdr:SubmissionDataType="Char">
                <Description>
                    <TranslatedText xml:lang="en">Standardized Disposition Term</TranslatedText>
                </Description>
                <CodeListRef CodeListOID="CL.C89968"/>
                <mdr:CDISCNotes>
                    <TranslatedText xml:lang="en">Contains the result in a standard
                        format.</TranslatedText>
                </mdr:CDISCNotes>
            </ItemDef>
            <ItemDef DataType="text" Name="DSUSCHFL" OID="IT.DS.DSUSCHFL" mdr:Core="Exp"
                mdr:SubmissionDataType="Char">
                <Description>
                    <TranslatedText xml:lang="en">Unscheduled Flag</TranslatedText>
                </Description>
                <CodeListRef CodeListOID="CL.C66742"/>
                <mdr:CDISCNotes>
                    <TranslatedText xml:lang="en">Indicates whether the subject's disposition was
                        unscheduled. If the subject's disposition was based upon a schedule defined
                        in the protocol, this flag should be null. Expected values are Y or
                        null.</TranslatedText>
                </mdr:CDISCNotes>
            </ItemDef>
            <ItemDef DataType="double" Name="VISITDY" OID="IT.DS.VISITDY" mdr:Core="Perm"
                mdr:SubmissionDataType="Num">
                <Description>
                    <TranslatedText xml:lang="en">Planned Study Day of Disposition</TranslatedText>
                </Description>
                <mdr:CDISCNotes>
                    <TranslatedText xml:lang="en">Planned study day of collection. Should be an
                        integer. VISITDY should be populated only when DSTERM represents a scheduled
                        activity.</TranslatedText>
                </mdr:CDISCNotes>
            </ItemDef>
            <ItemDef DataType="text" Name="DSSTDTC" OID="IT.DS.DSSTDTC" mdr:Core="Req"
                mdr:SubmissionDataType="Char">
                <Description>
                    <TranslatedText xml:lang="en">Date/Time of Disposition</TranslatedText>
                </Description>
                <mdr:CDISCNotes>
                    <TranslatedText xml:lang="en">Date/Time of the disposition event, in ISO 8601
                        format.</TranslatedText>
                </mdr:CDISCNotes>
            </ItemDef>
            <ItemDef DataType="double" Name="DSSTDY" OID="IT.DS.DSSTDY" mdr:Core="Perm"
                mdr:SubmissionDataType="Num">
                <Description>
                    <TranslatedText xml:lang="en">Study Day of Disposition</TranslatedText>
                </Description>
                <mdr:CDISCNotes>
                    <TranslatedText xml:lang="en">Study day of the disposition event, in integer
                        days. The algorithm for calculations must be relative to the sponsor-defined
                        RFSTDTC variable in the Demographics (DM) domain.</TranslatedText>
                </mdr:CDISCNotes>
            </ItemDef>
            <ItemDef DataType="double" Name="DSNOMDY" OID="IT.DS.DSNOMDY" mdr:Core="Exp"
                mdr:SubmissionDataType="Num">
                <Description>
                    <TranslatedText xml:lang="en">Nominal Study Day for Tabulations</TranslatedText>
                </Description>
                <mdr:CDISCNotes>
                    <TranslatedText xml:lang="en">Nominal study day used for grouping records for
                        observations that may occur on different days into a single reported study
                        day. Should be an integer.</TranslatedText>
                </mdr:CDISCNotes>
            </ItemDef>
            <ItemDef DataType="text" Name="DSNOMLBL" OID="IT.DS.DSNOMLBL" mdr:Core="Perm"
                mdr:SubmissionDataType="Char">
                <Description>
                    <TranslatedText xml:lang="en">Label for Nominal Study Day</TranslatedText>
                </Description>
                <mdr:CDISCNotes>
                    <TranslatedText xml:lang="en">A label for a given value of DSNOMDY as presented
                        in the study report. Examples: Week 4, Day 28, Terminal
                        Sac.</TranslatedText>
                </mdr:CDISCNotes>
            </ItemDef>
            <ItemDef DataType="text" Name="STUDYID" OID="IT.BW.STUDYID" mdr:Core="Req"
                mdr:SubmissionDataType="Char">
                <Description>
                    <TranslatedText xml:lang="en">Study Identifier</TranslatedText>
                </Description>
                <mdr:CDISCNotes>
                    <TranslatedText xml:lang="en">Unique identifier for a study.</TranslatedText>
                </mdr:CDISCNotes>
            </ItemDef>
            <ItemDef DataType="text" Name="DOMAIN" OID="IT.BW.DOMAIN" mdr:Core="Req"
                mdr:SubmissionDataType="Char">
                <Description>
                    <TranslatedText xml:lang="en">Domain Abbreviation</TranslatedText>
                </Description>
                <CodeListRef CodeListOID="CL.C66734.BW"/>
                <mdr:CDISCNotes>
                    <TranslatedText xml:lang="en">Two-character abbreviation for the
                        domain.</TranslatedText>
                </mdr:CDISCNotes>
            </ItemDef>
            <ItemDef DataType="text" Name="USUBJID" OID="IT.BW.USUBJID" mdr:Core="Req"
                mdr:SubmissionDataType="Char">
                <Description>
                    <TranslatedText xml:lang="en">Unique Subject Identifier</TranslatedText>
                </Description>
                <mdr:CDISCNotes>
                    <TranslatedText xml:lang="en">Identifier used to uniquely identify a subject
                        across all studies for all applications or submissions involving the
                        product.</TranslatedText>
                </mdr:CDISCNotes>
            </ItemDef>
            <ItemDef DataType="double" Name="BWSEQ" OID="IT.BW.BWSEQ" mdr:Core="Req"
                mdr:SubmissionDataType="Num">
                <Description>
                    <TranslatedText xml:lang="en">Sequence Number</TranslatedText>
                </Description>
                <mdr:CDISCNotes>
                    <TranslatedText xml:lang="en">Sequence number given to ensure uniqueness of
                        subject records within a domain. May be any valid number.</TranslatedText>
                </mdr:CDISCNotes>
            </ItemDef>
            <ItemDef DataType="text" Name="BWTESTCD" OID="IT.BW.BWTESTCD" mdr:Core="Req"
                mdr:SubmissionDataType="Char">
                <Description>
                    <TranslatedText xml:lang="en">Test Short Name</TranslatedText>
                </Description>
                <CodeListRef CodeListOID="CL.C89962"/>
                <mdr:CDISCNotes>
                    <TranslatedText xml:lang="en">Short name of the measurement, test, or
                        examination described in BWTEST. It can be used as a column name when
                        converting a dataset from a vertical to a horizontal format. The value in
                        BWTESTCD cannot be longer than 8 characters, nor can it start with a number
                        (e.g., "1TEST" is not valid). BWTESTCD cannot contain characters other than
                        letters, numbers, or underscores.</TranslatedText>
                </mdr:CDISCNotes>
            </ItemDef>
            <ItemDef DataType="text" Name="BWTEST" OID="IT.BW.BWTEST" mdr:Core="Req"
                mdr:SubmissionDataType="Char">
                <Description>
                    <TranslatedText xml:lang="en">Test Name</TranslatedText>
                </Description>
                <CodeListRef CodeListOID="CL.C89961"/>
                <mdr:CDISCNotes>
                    <TranslatedText xml:lang="en">Long name for BWTESTCD. The value in BWTEST cannot
                        be longer than 40 characters.</TranslatedText>
                </mdr:CDISCNotes>
            </ItemDef>
            <ItemDef DataType="text" Name="BWORRES" OID="IT.BW.BWORRES" mdr:Core="Exp"
                mdr:SubmissionDataType="Char">
                <Description>
                    <TranslatedText xml:lang="en">Result or Findings as Collected</TranslatedText>
                </Description>
                <mdr:CDISCNotes>
                    <TranslatedText xml:lang="en">Result of the measurement or finding as originally
                        received or collected.</TranslatedText>
                </mdr:CDISCNotes>
            </ItemDef>
            <ItemDef DataType="text" Name="BWORRESU" OID="IT.BW.BWORRESU" mdr:Core="Exp"
                mdr:SubmissionDataType="Char">
                <Description>
                    <TranslatedText xml:lang="en">Unit of the Original Result</TranslatedText>
                </Description>
                <CodeListRef CodeListOID="CL.C71620"/>
                <mdr:CDISCNotes>
                    <TranslatedText xml:lang="en">The unit for the original result. The unit of the
                        original result should be mapped to a synonymous unit on the Controlled
                        Terminology list.</TranslatedText>
                </mdr:CDISCNotes>
            </ItemDef>
            <ItemDef DataType="text" Name="BWSTRESC" OID="IT.BW.BWSTRESC" mdr:Core="Exp"
                mdr:SubmissionDataType="Char">
                <Description>
                    <TranslatedText xml:lang="en">Standardized Result in Character
                        Format</TranslatedText>
                </Description>
                <mdr:CDISCNotes>
                    <TranslatedText xml:lang="en">Contains the result value for all findings, copied
                        or derived from BWORRES in a standard format or standard units. BWSTRESC
                        should store all results or findings in character format; if results are
                        numeric, they should also be submitted in numeric format in
                        BWSTRESN.</TranslatedText>
                </mdr:CDISCNotes>
            </ItemDef>
            <ItemDef DataType="double" Name="BWSTRESN" OID="IT.BW.BWSTRESN" mdr:Core="Exp"
                mdr:SubmissionDataType="Num">
                <Description>
                    <TranslatedText xml:lang="en">Standardized Result in Numeric
                        Format</TranslatedText>
                </Description>
                <mdr:CDISCNotes>
                    <TranslatedText xml:lang="en">Used for numeric results or findings in standard
                        format; contains the numeric form of BWSTRESC. BWSTRESN should store all
                        numeric test results or findings.</TranslatedText>
                </mdr:CDISCNotes>
            </ItemDef>
            <ItemDef DataType="text" Name="BWSTRESU" OID="IT.BW.BWSTRESU" mdr:Core="Exp"
                mdr:SubmissionDataType="Char">
                <Description>
                    <TranslatedText xml:lang="en">Unit of the Standardized Result</TranslatedText>
                </Description>
                <CodeListRef CodeListOID="CL.C71620"/>
                <mdr:CDISCNotes>
                    <TranslatedText xml:lang="en">Standardized unit used for BWSTRESC and
                        BWSTRESN.</TranslatedText>
                </mdr:CDISCNotes>
            </ItemDef>
            <ItemDef DataType="text" Name="BWSTAT" OID="IT.BW.BWSTAT" mdr:Core="Perm"
                mdr:SubmissionDataType="Char">
                <Description>
                    <TranslatedText xml:lang="en">Completion Status</TranslatedText>
                </Description>
                <CodeListRef CodeListOID="CL.C66789"/>
                <mdr:CDISCNotes>
                    <TranslatedText xml:lang="en">Used to indicate when a test is not done or result
                        is missing. Should be null if a result exists in BWORRES.</TranslatedText>
                </mdr:CDISCNotes>
            </ItemDef>
            <ItemDef DataType="text" Name="BWREASND" OID="IT.BW.BWREASND" mdr:Core="Perm"
                mdr:SubmissionDataType="Char">
                <Description>
                    <TranslatedText xml:lang="en">Reason Not Done</TranslatedText>
                </Description>
                <mdr:CDISCNotes>
                    <TranslatedText xml:lang="en">Describes why BWSTAT is NOT DONE, such as BROKEN
                        EQUIPMENT or TECHNICIAN OVERSIGHT.</TranslatedText>
                </mdr:CDISCNotes>
            </ItemDef>
            <ItemDef DataType="text" Name="BWBLFL" OID="IT.BW.BWBLFL" mdr:Core="Exp"
                mdr:SubmissionDataType="Char">
                <Description>
                    <TranslatedText xml:lang="en">Baseline Flag</TranslatedText>
                </Description>
                <CodeListRef CodeListOID="CL.C66742"/>
                <mdr:CDISCNotes>
                    <TranslatedText xml:lang="en">A baseline indicator may be used to calculate
                        differences or changes from baseline. Value should be Y or null. The
                        baseline flag is sponsor defined.</TranslatedText>
                </mdr:CDISCNotes>
            </ItemDef>
            <ItemDef DataType="text" Name="BWFAST" OID="IT.BW.BWFAST" mdr:Core="Perm"
                mdr:SubmissionDataType="Char">
                <Description>
                    <TranslatedText xml:lang="en">Fasting Status</TranslatedText>
                </Description>
                <CodeListRef CodeListOID="CL.C66742"/>
                <mdr:CDISCNotes>
                    <TranslatedText xml:lang="en">Indicator used to identify fasting status. The
                        value should by Y or null.</TranslatedText>
                </mdr:CDISCNotes>
            </ItemDef>
            <ItemDef DataType="text" Name="BWEXCLFL" OID="IT.BW.BWEXCLFL" mdr:Core="Perm"
                mdr:SubmissionDataType="Char">
                <Description>
                    <TranslatedText xml:lang="en">Exclusion Flag</TranslatedText>
                </Description>
                <CodeListRef CodeListOID="CL.C66742"/>
                <mdr:CDISCNotes>
                    <TranslatedText xml:lang="en">Y if the result should be excluded from all
                        calculations, otherwise null.</TranslatedText>
                </mdr:CDISCNotes>
            </ItemDef>
            <ItemDef DataType="text" Name="BWREASEX" OID="IT.BW.BWREASEX" mdr:Core="Perm"
                mdr:SubmissionDataType="Char">
                <Description>
                    <TranslatedText xml:lang="en">Reason for Exclusion</TranslatedText>
                </Description>
                <mdr:CDISCNotes>
                    <TranslatedText xml:lang="en">The reason the result should be excluded from all
                        calculations. Used only when BWEXCLFL is Y.</TranslatedText>
                </mdr:CDISCNotes>
            </ItemDef>
            <ItemDef DataType="text" Name="BWUSCHFL" OID="IT.BW.BWUSCHFL" mdr:Core="Perm"
                mdr:SubmissionDataType="Char">
                <Description>
                    <TranslatedText xml:lang="en">Unscheduled Flag</TranslatedText>
                </Description>
                <CodeListRef CodeListOID="CL.C66742"/>
                <mdr:CDISCNotes>
                    <TranslatedText xml:lang="en">Indicates whether the timing of a performed test
                        or observation was unscheduled. If a test or observation was performed based
                        upon a schedule defined in the protocol, this flag should be null. Expected
                        values are Y or null.</TranslatedText>
                </mdr:CDISCNotes>
            </ItemDef>
            <ItemDef DataType="double" Name="VISITDY" OID="IT.BW.VISITDY" mdr:Core="Perm"
                mdr:SubmissionDataType="Num">
                <Description>
                    <TranslatedText xml:lang="en">Planned Study Day of Collection</TranslatedText>
                </Description>
                <mdr:CDISCNotes>
                    <TranslatedText xml:lang="en">Planned study day of collection. Should be an
                        integer.</TranslatedText>
                </mdr:CDISCNotes>
            </ItemDef>
            <ItemDef DataType="text" Name="BWDTC" OID="IT.BW.BWDTC" mdr:Core="Exp"
                mdr:SubmissionDataType="Char">
                <Description>
                    <TranslatedText xml:lang="en">Date/Time Animal Weighed</TranslatedText>
                </Description>
                <mdr:CDISCNotes>
                    <TranslatedText xml:lang="en">Date/Time of body weight collection in ISO 8601
                        format.</TranslatedText>
                </mdr:CDISCNotes>
            </ItemDef>
            <ItemDef DataType="double" Name="BWDY" OID="IT.BW.BWDY" mdr:Core="Perm"
                mdr:SubmissionDataType="Num">
                <Description>
                    <TranslatedText xml:lang="en">Study Day Animal Weighed</TranslatedText>
                </Description>
                <mdr:CDISCNotes>
                    <TranslatedText xml:lang="en">Study day of body weight collection, in integer
                        days. The algorithm for calculations must be relative to the sponsor-defined
                        RFSTDTC variable in the Demographics (DM) domain.</TranslatedText>
                </mdr:CDISCNotes>
            </ItemDef>
            <ItemDef DataType="double" Name="BWNOMDY" OID="IT.BW.BWNOMDY" mdr:Core="Exp"
                mdr:SubmissionDataType="Num">
                <Description>
                    <TranslatedText xml:lang="en">Nominal Study Day for Tabulations</TranslatedText>
                </Description>
                <mdr:CDISCNotes>
                    <TranslatedText xml:lang="en">Nominal study day used for grouping records for
                        observations that may occur on different days into a single reported study
                        day. Should be an integer.</TranslatedText>
                </mdr:CDISCNotes>
            </ItemDef>
            <ItemDef DataType="text" Name="BWNOMLBL" OID="IT.BW.BWNOMLBL" mdr:Core="Perm"
                mdr:SubmissionDataType="Char">
                <Description>
                    <TranslatedText xml:lang="en">Label for Nominal Study Day</TranslatedText>
                </Description>
                <mdr:CDISCNotes>
                    <TranslatedText xml:lang="en">A label for a given value of BWNOMDY as presented
                        in the study report. Examples: "Week 4," "Day 28," "Terminal
                        Sac".</TranslatedText>
                </mdr:CDISCNotes>
            </ItemDef>
            <ItemDef DataType="text" Name="STUDYID" OID="IT.BG.STUDYID" mdr:Core="Req"
                mdr:SubmissionDataType="Char">
                <Description>
                    <TranslatedText xml:lang="en">Study Identifier</TranslatedText>
                </Description>
                <mdr:CDISCNotes>
                    <TranslatedText xml:lang="en">Unique identifier for a study.</TranslatedText>
                </mdr:CDISCNotes>
            </ItemDef>
            <ItemDef DataType="text" Name="DOMAIN" OID="IT.BG.DOMAIN" mdr:Core="Req"
                mdr:SubmissionDataType="Char">
                <Description>
                    <TranslatedText xml:lang="en">Domain Abbreviation</TranslatedText>
                </Description>
                <CodeListRef CodeListOID="CL.C66734.BG"/>
                <mdr:CDISCNotes>
                    <TranslatedText xml:lang="en">Two-character abbreviation for the
                        domain.</TranslatedText>
                </mdr:CDISCNotes>
            </ItemDef>
            <ItemDef DataType="text" Name="USUBJID" OID="IT.BG.USUBJID" mdr:Core="Req"
                mdr:SubmissionDataType="Char">
                <Description>
                    <TranslatedText xml:lang="en">Unique Subject Identifier</TranslatedText>
                </Description>
                <mdr:CDISCNotes>
                    <TranslatedText xml:lang="en">Identifier used to uniquely identify a subject
                        across all studies for all applications or submissions involving the
                        product.</TranslatedText>
                </mdr:CDISCNotes>
            </ItemDef>
            <ItemDef DataType="double" Name="BGSEQ" OID="IT.BG.BGSEQ" mdr:Core="Req"
                mdr:SubmissionDataType="Num">
                <Description>
                    <TranslatedText xml:lang="en">Sequence Number</TranslatedText>
                </Description>
                <mdr:CDISCNotes>
                    <TranslatedText xml:lang="en">Sequence number given to ensure uniqueness of
                        subject records within a domain. May be any valid number.</TranslatedText>
                </mdr:CDISCNotes>
            </ItemDef>
            <ItemDef DataType="text" Name="BGTESTCD" OID="IT.BG.BGTESTCD" mdr:Core="Req"
                mdr:SubmissionDataType="Char">
                <Description>
                    <TranslatedText xml:lang="en">Test Short Name</TranslatedText>
                </Description>
                <CodeListRef CodeListOID="CL.C89960"/>
                <mdr:CDISCNotes>
                    <TranslatedText xml:lang="en">Short name of the measurement, test, or
                        examination described in BGTEST. It can be used as a column name when
                        converting a dataset from a vertical to a horizontal format. The value in
                        BGTESTCD cannot be longer than 8 characters, nor can it start with a number
                        (e.g., "1TEST" is not valid). BGTESTCD cannot contain characters other than
                        letters, numbers, or underscores.</TranslatedText>
                </mdr:CDISCNotes>
            </ItemDef>
            <ItemDef DataType="text" Name="BGTEST" OID="IT.BG.BGTEST" mdr:Core="Req"
                mdr:SubmissionDataType="Char">
                <Description>
                    <TranslatedText xml:lang="en">Test Name</TranslatedText>
                </Description>
                <CodeListRef CodeListOID="CL.C89959"/>
                <mdr:CDISCNotes>
                    <TranslatedText xml:lang="en">Long name for BGTESTCD. The value in BGTEST cannot
                        be longer than 40 characters.</TranslatedText>
                </mdr:CDISCNotes>
            </ItemDef>
            <ItemDef DataType="text" Name="BGORRES" OID="IT.BG.BGORRES" mdr:Core="Exp"
                mdr:SubmissionDataType="Char">
                <Description>
                    <TranslatedText xml:lang="en">Result or Findings as Collected</TranslatedText>
                </Description>
                <mdr:CDISCNotes>
                    <TranslatedText xml:lang="en">Result of the measurement or finding as originally
                        received or collected.</TranslatedText>
                </mdr:CDISCNotes>
            </ItemDef>
            <ItemDef DataType="text" Name="BGORRESU" OID="IT.BG.BGORRESU" mdr:Core="Exp"
                mdr:SubmissionDataType="Char">
                <Description>
                    <TranslatedText xml:lang="en">Unit of the Original Result</TranslatedText>
                </Description>
                <CodeListRef CodeListOID="CL.C71620"/>
                <mdr:CDISCNotes>
                    <TranslatedText xml:lang="en">The unit for the original result. The unit of the
                        original result should be mapped to a synonymous unit on the Controlled
                        Terminology (http://www.cdisc.org/terminology) list.</TranslatedText>
                </mdr:CDISCNotes>
            </ItemDef>
            <ItemDef DataType="text" Name="BGSTRESC" OID="IT.BG.BGSTRESC" mdr:Core="Exp"
                mdr:SubmissionDataType="Char">
                <Description>
                    <TranslatedText xml:lang="en">Standardized Result in Character
                        Format</TranslatedText>
                </Description>
                <mdr:CDISCNotes>
                    <TranslatedText xml:lang="en">Contains the result value for all findings, copied
                        or derived from BGORRES in a standard format or standard units. BGSTRESC
                        should store all results or findings in character format; if results are
                        numeric, they should also be submitted in numeric format in
                        BGSTRESN.</TranslatedText>
                </mdr:CDISCNotes>
            </ItemDef>
            <ItemDef DataType="double" Name="BGSTRESN" OID="IT.BG.BGSTRESN" mdr:Core="Exp"
                mdr:SubmissionDataType="Num">
                <Description>
                    <TranslatedText xml:lang="en">Standardized Result in Numeric
                        Format</TranslatedText>
                </Description>
                <mdr:CDISCNotes>
                    <TranslatedText xml:lang="en">Used for numeric results or findings in standard
                        format; contains the numeric form of BGSTRESC. BGSTRESN should store all
                        numeric test results or findings.</TranslatedText>
                </mdr:CDISCNotes>
            </ItemDef>
            <ItemDef DataType="text" Name="BGSTRESU" OID="IT.BG.BGSTRESU" mdr:Core="Exp"
                mdr:SubmissionDataType="Char">
                <Description>
                    <TranslatedText xml:lang="en">Unit of the Standardized Result</TranslatedText>
                </Description>
                <CodeListRef CodeListOID="CL.C71620"/>
                <mdr:CDISCNotes>
                    <TranslatedText xml:lang="en">Standardized unit used for BGSTRESC and
                        BGSTRESN.</TranslatedText>
                </mdr:CDISCNotes>
            </ItemDef>
            <ItemDef DataType="text" Name="BGSTAT" OID="IT.BG.BGSTAT" mdr:Core="Perm"
                mdr:SubmissionDataType="Char">
                <Description>
                    <TranslatedText xml:lang="en">Completion Status</TranslatedText>
                </Description>
                <CodeListRef CodeListOID="CL.C66789"/>
                <mdr:CDISCNotes>
                    <TranslatedText xml:lang="en">Used to indicate when a test is not done or result
                        is missing. Should be null if a result exists in BGORRES.</TranslatedText>
                </mdr:CDISCNotes>
            </ItemDef>
            <ItemDef DataType="text" Name="BGREASND" OID="IT.BG.BGREASND" mdr:Core="Perm"
                mdr:SubmissionDataType="Char">
                <Description>
                    <TranslatedText xml:lang="en">Reason Not Done</TranslatedText>
                </Description>
                <mdr:CDISCNotes>
                    <TranslatedText xml:lang="en">Describes why BGSTAT is NOT DONE, such as MISSING
                        BODY WEIGHT.</TranslatedText>
                </mdr:CDISCNotes>
            </ItemDef>
            <ItemDef DataType="text" Name="BGEXCLFL" OID="IT.BG.BGEXCLFL" mdr:Core="Perm"
                mdr:SubmissionDataType="Char">
                <Description>
                    <TranslatedText xml:lang="en">Exclusion Flag</TranslatedText>
                </Description>
                <CodeListRef CodeListOID="CL.C66742"/>
                <mdr:CDISCNotes>
                    <TranslatedText xml:lang="en">Y if the result should be excluded from all
                        calculations, otherwise null.</TranslatedText>
                </mdr:CDISCNotes>
            </ItemDef>
            <ItemDef DataType="text" Name="BGREASEX" OID="IT.BG.BGREASEX" mdr:Core="Perm"
                mdr:SubmissionDataType="Char">
                <Description>
                    <TranslatedText xml:lang="en">Reason for Exclusion</TranslatedText>
                </Description>
                <mdr:CDISCNotes>
                    <TranslatedText xml:lang="en">The reason the result should be excluded from all
                        calculations. Used only when BGEXCLFL is Y.</TranslatedText>
                </mdr:CDISCNotes>
            </ItemDef>
            <ItemDef DataType="text" Name="BGDTC" OID="IT.BG.BGDTC" mdr:Core="Exp"
                mdr:SubmissionDataType="Char">
                <Description>
                    <TranslatedText xml:lang="en">Date/Time Animal Weighed</TranslatedText>
                </Description>
                <mdr:CDISCNotes>
                    <TranslatedText xml:lang="en">Date/Time of the start of the weight interval, in
                        ISO 8601 format.</TranslatedText>
                </mdr:CDISCNotes>
            </ItemDef>
            <ItemDef DataType="text" Name="BGENDTC" OID="IT.BG.BGENDTC" mdr:Core="Exp"
                mdr:SubmissionDataType="Char">
                <Description>
                    <TranslatedText xml:lang="en">End Date/Time Animal Weighed</TranslatedText>
                </Description>
                <mdr:CDISCNotes>
                    <TranslatedText xml:lang="en">Date/Time of the end of the weight interval, in
                        ISO 8601 format.</TranslatedText>
                </mdr:CDISCNotes>
            </ItemDef>
            <ItemDef DataType="double" Name="BGDY" OID="IT.BG.BGDY" mdr:Core="Perm"
                mdr:SubmissionDataType="Num">
                <Description>
                    <TranslatedText xml:lang="en">Study Day of Start of Interval</TranslatedText>
                </Description>
                <mdr:CDISCNotes>
                    <TranslatedText xml:lang="en">Study day of the start of the weight interval, in
                        integer days. The algorithm for calculations must be relative to the
                        sponsor-defined RFSTDTC variable in the Demographics (DM)
                        domain.</TranslatedText>
                </mdr:CDISCNotes>
            </ItemDef>
            <ItemDef DataType="double" Name="BGENDY" OID="IT.BG.BGENDY" mdr:Core="Perm"
                mdr:SubmissionDataType="Num">
                <Description>
                    <TranslatedText xml:lang="en">Study Day of End of Weight
                        Interval</TranslatedText>
                </Description>
                <mdr:CDISCNotes>
                    <TranslatedText xml:lang="en">Study day of the end of the weight interval, in
                        integer days. The algorithm for calculations must be relative to the
                        sponsor-defined RFSTDTC variable in the Demographics (DM)
                        domain.</TranslatedText>
                </mdr:CDISCNotes>
            </ItemDef>
            <ItemDef DataType="text" Name="STUDYID" OID="IT.CL.STUDYID" mdr:Core="Req"
                mdr:SubmissionDataType="Char">
                <Description>
                    <TranslatedText xml:lang="en">Study Identifier</TranslatedText>
                </Description>
                <mdr:CDISCNotes>
                    <TranslatedText xml:lang="en">Unique identifier for a study.</TranslatedText>
                </mdr:CDISCNotes>
            </ItemDef>
            <ItemDef DataType="text" Name="DOMAIN" OID="IT.CL.DOMAIN" mdr:Core="Req"
                mdr:SubmissionDataType="Char">
                <Description>
                    <TranslatedText xml:lang="en">Domain Abbreviation</TranslatedText>
                </Description>
                <CodeListRef CodeListOID="CL.C66734.CL"/>
                <mdr:CDISCNotes>
                    <TranslatedText xml:lang="en">Two-character abbreviation for the
                        domain.</TranslatedText>
                </mdr:CDISCNotes>
            </ItemDef>
            <ItemDef DataType="text" Name="USUBJID" OID="IT.CL.USUBJID" mdr:Core="Exp"
                mdr:SubmissionDataType="Char">
                <Description>
                    <TranslatedText xml:lang="en">Unique Subject Identifier</TranslatedText>
                </Description>
                <mdr:CDISCNotes>
                    <TranslatedText xml:lang="en">Identifier used to uniquely identify a subject
                        across all studies for all applications or submissions involving the
                        product. Either USUBJID or POOLID must be populated.</TranslatedText>
                </mdr:CDISCNotes>
            </ItemDef>
            <ItemDef DataType="text" Name="POOLID" OID="IT.CL.POOLID" mdr:Core="Perm"
                mdr:SubmissionDataType="Char">
                <Description>
                    <TranslatedText xml:lang="en">Pool Identifier</TranslatedText>
                </Description>
                <mdr:CDISCNotes>
                    <TranslatedText xml:lang="en">Identifier used for pooling subjects to assign a
                        single finding to multiple subjects. If POOLID is entered, POOLDEF records
                        must exist for each subject and the USUBJID must be null. Either USUBJID or
                        POOLID must be populated.</TranslatedText>
                </mdr:CDISCNotes>
            </ItemDef>
            <ItemDef DataType="text" Name="FOCID" OID="IT.CL.FOCID" mdr:Core="Perm"
                mdr:SubmissionDataType="Char">
                <Description>
                    <TranslatedText xml:lang="en">Focus of Study-Specific Interest</TranslatedText>
                </Description>
                <mdr:CDISCNotes>
                    <TranslatedText xml:lang="en">Identification of a focus of study-specific
                        interest on or within a subject or specimen as defined in the protocol, for
                        which a measurement, test, or examination was performed. An example could be
                        a drug application site, e.g. "Injection site 1," "Biopsy site 1," "Treated
                        site 1." the value in this variable should have inherent semantic
                        value.</TranslatedText>
                </mdr:CDISCNotes>
            </ItemDef>
            <ItemDef DataType="double" Name="CLSEQ" OID="IT.CL.CLSEQ" mdr:Core="Req"
                mdr:SubmissionDataType="Num">
                <Description>
                    <TranslatedText xml:lang="en">Sequence Number</TranslatedText>
                </Description>
                <mdr:CDISCNotes>
                    <TranslatedText xml:lang="en">The sequence number must be unique for each record
                        within a USUBJID or POOLID, whichever applies for the
                        record.</TranslatedText>
                </mdr:CDISCNotes>
            </ItemDef>
            <ItemDef DataType="text" Name="CLGRPID" OID="IT.CL.CLGRPID" mdr:Core="Perm"
                mdr:SubmissionDataType="Char">
                <Description>
                    <TranslatedText xml:lang="en">Group Identifier</TranslatedText>
                </Description>
                <mdr:CDISCNotes>
                    <TranslatedText xml:lang="en">Used to tie together a block of related records in
                        a single domain for a subject or pool. This is not the treatment group
                        number.</TranslatedText>
                </mdr:CDISCNotes>
            </ItemDef>
            <ItemDef DataType="text" Name="CLSPID" OID="IT.CL.CLSPID" mdr:Core="Perm"
                mdr:SubmissionDataType="Char">
                <Description>
                    <TranslatedText xml:lang="en">Mass Identifier</TranslatedText>
                </Description>
                <mdr:CDISCNotes>
                    <TranslatedText xml:lang="en">Mass identifier such as MASS 1 or MASS A. Used
                        when the mass was discovered during the in-life phase and assigned a mass
                        identifier. The mass identification should be unique within the subject,
                        regardless of mass location.</TranslatedText>
                </mdr:CDISCNotes>
            </ItemDef>
            <ItemDef DataType="text" Name="CLTESTCD" OID="IT.CL.CLTESTCD" mdr:Core="Req"
                mdr:SubmissionDataType="Char">
                <Description>
                    <TranslatedText xml:lang="en">Test Short Name</TranslatedText>
                </Description>
                <mdr:CDISCNotes>
                    <TranslatedText xml:lang="en">Short name of the measurement, test, or
                        examination described in CLTEST. It can be used as a column name when
                        converting a dataset from a vertical to a horizontal format. The value in
                        CLTESTCD cannot be longer than 8 characters, nor can it start with a number
                        (e.g., "1TEST" is not valid). CLTESTCD cannot contain characters other than
                        letters, numbers, or underscores.</TranslatedText>
                </mdr:CDISCNotes>
            </ItemDef>
            <ItemDef DataType="text" Name="CLTEST" OID="IT.CL.CLTEST" mdr:Core="Req"
                mdr:SubmissionDataType="Char">
                <Description>
                    <TranslatedText xml:lang="en">Test Name</TranslatedText>
                </Description>
                <mdr:CDISCNotes>
                    <TranslatedText xml:lang="en">Long name for CLTESTCD. The value in CLTEST cannot
                        be longer than 40 characters.</TranslatedText>
                </mdr:CDISCNotes>
            </ItemDef>
            <ItemDef DataType="text" Name="CLCAT" OID="IT.CL.CLCAT" mdr:Core="Req"
                mdr:SubmissionDataType="Char">
                <Description>
                    <TranslatedText xml:lang="en">Category for Clinical
                        Observations</TranslatedText>
                </Description>
                <CodeListRef CodeListOID="CL.C89963"/>
                <mdr:CDISCNotes>
                    <TranslatedText xml:lang="en">Used to define a category of the clinical
                        observation.</TranslatedText>
                </mdr:CDISCNotes>
            </ItemDef>
            <ItemDef DataType="text" Name="CLSCAT" OID="IT.CL.CLSCAT" mdr:Core="Perm"
                mdr:SubmissionDataType="Char">
                <Description>
                    <TranslatedText xml:lang="en">Subcategory for Clinical
                        Observations</TranslatedText>
                </Description>
                <mdr:CDISCNotes>
                    <TranslatedText xml:lang="en">Used to further categorize a group of clinical
                        observations within a category. For example "Whole Body Appearance" and
                        "Sensory Organ Appearance" may be subcategories within Clinical
                        Signs.</TranslatedText>
                </mdr:CDISCNotes>
            </ItemDef>
            <ItemDef DataType="text" Name="CLBODSYS" OID="IT.CL.CLBODSYS" mdr:Core="Perm"
                mdr:SubmissionDataType="Char">
                <Description>
                    <TranslatedText xml:lang="en">Body System or Organ Class</TranslatedText>
                </Description>
                <CodeListRef CodeListOID="CL.C88026"/>
                <mdr:CDISCNotes>
                    <TranslatedText xml:lang="en">Body system or organ class associated with the
                        measurement performed.</TranslatedText>
                </mdr:CDISCNotes>
            </ItemDef>
            <ItemDef DataType="text" Name="CLORRES" OID="IT.CL.CLORRES" mdr:Core="Exp"
                mdr:SubmissionDataType="Char">
                <Description>
                    <TranslatedText xml:lang="en">Result or Findings as Collected</TranslatedText>
                </Description>
                <mdr:CDISCNotes>
                    <TranslatedText xml:lang="en">Text description of the finding as originally
                        received or collected. If the examination was not performed on a particular
                        body system, or at the subject level, then the value should be null, and NOT
                        DONE should appear in CLSTAT.</TranslatedText>
                </mdr:CDISCNotes>
            </ItemDef>
            <ItemDef DataType="text" Name="CLSTRESC" OID="IT.CL.CLSTRESC" mdr:Core="Exp"
                mdr:SubmissionDataType="Char">
                <Description>
                    <TranslatedText xml:lang="en">Standardized Result in Character
                        Format</TranslatedText>
                </Description>
                <mdr:CDISCNotes>
                    <TranslatedText xml:lang="en">The base finding from CLORRES without modifiers.
                        If the examination was completed and there were no abnormal findings, the
                        value must be NORMAL.</TranslatedText>
                </mdr:CDISCNotes>
            </ItemDef>
            <ItemDef DataType="text" Name="CLRESCAT" OID="IT.CL.CLRESCAT" mdr:Core="Perm"
                mdr:SubmissionDataType="Char">
                <Description>
                    <TranslatedText xml:lang="en">Result Category</TranslatedText>
                </Description>
                <mdr:CDISCNotes>
                    <TranslatedText xml:lang="en">Used to categorize the result of a finding post
                        collection. Examples: Color or Facial.</TranslatedText>
                </mdr:CDISCNotes>
            </ItemDef>
            <ItemDef DataType="text" Name="CLSTAT" OID="IT.CL.CLSTAT" mdr:Core="Perm"
                mdr:SubmissionDataType="Char">
                <Description>
                    <TranslatedText xml:lang="en">Completion Status</TranslatedText>
                </Description>
                <CodeListRef CodeListOID="CL.C66789"/>
                <mdr:CDISCNotes>
                    <TranslatedText xml:lang="en">Used to indicate examination not done or result is
                        missing. Should be null if a result exists in CLORRES.</TranslatedText>
                </mdr:CDISCNotes>
            </ItemDef>
            <ItemDef DataType="text" Name="CLREASND" OID="IT.CL.CLREASND" mdr:Core="Perm"
                mdr:SubmissionDataType="Char">
                <Description>
                    <TranslatedText xml:lang="en">Reason Not Done</TranslatedText>
                </Description>
                <mdr:CDISCNotes>
                    <TranslatedText xml:lang="en">Describes why CLSTAT is NOT DONE, such as SUBJECT
                        MORIBUND.</TranslatedText>
                </mdr:CDISCNotes>
            </ItemDef>
            <ItemDef DataType="text" Name="CLLOC" OID="IT.CL.CLLOC" mdr:Core="Exp"
                mdr:SubmissionDataType="Char">
                <Description>
                    <TranslatedText xml:lang="en">Location of a Finding</TranslatedText>
                </Description>
                <mdr:CDISCNotes>
                    <TranslatedText xml:lang="en">Can be used to specify where a clinical sign
                        occurred. Example: LEFT EAR for skin rash.</TranslatedText>
                </mdr:CDISCNotes>
            </ItemDef>
            <ItemDef DataType="text" Name="CLEVAL" OID="IT.CL.CLEVAL" mdr:Core="Perm"
                mdr:SubmissionDataType="Char">
                <Description>
                    <TranslatedText xml:lang="en">Evaluator</TranslatedText>
                </Description>
                <mdr:CDISCNotes>
                    <TranslatedText xml:lang="en">Role of the person who provided the evaluation.
                        Example: TOX TECHNICIAN, OPHTHALMOLOGIST, VETERINARIAN.</TranslatedText>
                </mdr:CDISCNotes>
            </ItemDef>
            <ItemDef DataType="text" Name="CLSEV" OID="IT.CL.CLSEV" mdr:Core="Perm"
                mdr:SubmissionDataType="Char">
                <Description>
                    <TranslatedText xml:lang="en">Severity</TranslatedText>
                </Description>
                <mdr:CDISCNotes>
                    <TranslatedText xml:lang="en">Describes the severity or intensity of a
                        particular finding.</TranslatedText>
                </mdr:CDISCNotes>
            </ItemDef>
            <ItemDef DataType="text" Name="CLEXCLFL" OID="IT.CL.CLEXCLFL" mdr:Core="Perm"
                mdr:SubmissionDataType="Char">
                <Description>
                    <TranslatedText xml:lang="en">Exclusion Flag</TranslatedText>
                </Description>
                <CodeListRef CodeListOID="CL.C66742"/>
                <mdr:CDISCNotes>
                    <TranslatedText xml:lang="en">Y if the result should be excluded from all
                        calculations, otherwise null.</TranslatedText>
                </mdr:CDISCNotes>
            </ItemDef>
            <ItemDef DataType="text" Name="CLREASEX" OID="IT.CL.CLREASEX" mdr:Core="Perm"
                mdr:SubmissionDataType="Char">
                <Description>
                    <TranslatedText xml:lang="en">Reason for Exclusion</TranslatedText>
                </Description>
                <mdr:CDISCNotes>
                    <TranslatedText xml:lang="en">The reason the result should be excluded from all
                        calculations. Used only when CLEXCLFL is Y.</TranslatedText>
                </mdr:CDISCNotes>
            </ItemDef>
            <ItemDef DataType="text" Name="CLUSCHFL" OID="IT.CL.CLUSCHFL" mdr:Core="Perm"
                mdr:SubmissionDataType="Char">
                <Description>
                    <TranslatedText xml:lang="en">Unscheduled Flag</TranslatedText>
                </Description>
                <CodeListRef CodeListOID="CL.C66742"/>
                <mdr:CDISCNotes>
                    <TranslatedText xml:lang="en">Indicates whether the timing of a performed test
                        or observation was unscheduled. If a test or observation was performed based
                        upon a schedule defined in the protocol, this flag should be null. Expected
                        values are Y or null.</TranslatedText>
                </mdr:CDISCNotes>
            </ItemDef>
            <ItemDef DataType="double" Name="VISITDY" OID="IT.CL.VISITDY" mdr:Core="Perm"
                mdr:SubmissionDataType="Num">
                <Description>
                    <TranslatedText xml:lang="en">Planned Study Day of Collection</TranslatedText>
                </Description>
                <mdr:CDISCNotes>
                    <TranslatedText xml:lang="en">Planned study day of collection. Should be an
                        integer.</TranslatedText>
                </mdr:CDISCNotes>
            </ItemDef>
            <ItemDef DataType="text" Name="CLDTC" OID="IT.CL.CLDTC" mdr:Core="Exp"
                mdr:SubmissionDataType="Char">
                <Description>
                    <TranslatedText xml:lang="en">Date/Time of Observation</TranslatedText>
                </Description>
                <mdr:CDISCNotes>
                    <TranslatedText xml:lang="en">Date/Time of the clinical observation in ISO 8601
                        format. For measurements related to a continuous evaluation interval, CLDTC
                        should be used to indicate the start date/time of that
                        interval.</TranslatedText>
                </mdr:CDISCNotes>
            </ItemDef>
            <ItemDef DataType="text" Name="CLENDTC" OID="IT.CL.CLENDTC" mdr:Core="Perm"
                mdr:SubmissionDataType="Char">
                <Description>
                    <TranslatedText xml:lang="en">End Date/Time of Observation</TranslatedText>
                </Description>
                <mdr:CDISCNotes>
                    <TranslatedText xml:lang="en">Date/Time of end of observation interval, in ISO
                        8601 format. Should be populated when CLDTC represents the start date/time
                        of a continuous evaluation interval.</TranslatedText>
                </mdr:CDISCNotes>
            </ItemDef>
            <ItemDef DataType="double" Name="CLDY" OID="IT.CL.CLDY" mdr:Core="Perm"
                mdr:SubmissionDataType="Num">
                <Description>
                    <TranslatedText xml:lang="en">Study Day of Observation</TranslatedText>
                </Description>
                <mdr:CDISCNotes>
                    <TranslatedText xml:lang="en">Study day of observation, in integer days. For
                        measurements related to a continuous evaluation interval, CLDY can be used
                        to indicate start day of that interval. The algorithm for calculations must
                        be relative to the sponsor-defined RFSTDTC variable in the Demographics (DM)
                        domain.</TranslatedText>
                </mdr:CDISCNotes>
            </ItemDef>
            <ItemDef DataType="double" Name="CLENDY" OID="IT.CL.CLENDY" mdr:Core="Perm"
                mdr:SubmissionDataType="Num">
                <Description>
                    <TranslatedText xml:lang="en">Study Day of End of Observation</TranslatedText>
                </Description>
                <mdr:CDISCNotes>
                    <TranslatedText xml:lang="en">Study day of the end of observation, in integer
                        days. Can be populated when CLDY represents the start day of a continuous
                        evaluation interval. The algorithm for calculations must be relative to the
                        sponsor-defined RFSTDTC variable in the Demographics (DM)
                        domain.</TranslatedText>
                </mdr:CDISCNotes>
            </ItemDef>
            <ItemDef DataType="double" Name="CLNOMDY" OID="IT.CL.CLNOMDY" mdr:Core="Exp"
                mdr:SubmissionDataType="Num">
                <Description>
                    <TranslatedText xml:lang="en">Nominal Study Day for Tabulations</TranslatedText>
                </Description>
                <mdr:CDISCNotes>
                    <TranslatedText xml:lang="en">Nominal study day used for grouping records for
                        observations that may occur on different days into a single reported study
                        day. Should be an integer.</TranslatedText>
                </mdr:CDISCNotes>
            </ItemDef>
            <ItemDef DataType="text" Name="CLNOMLBL" OID="IT.CL.CLNOMLBL" mdr:Core="Perm"
                mdr:SubmissionDataType="Char">
                <Description>
                    <TranslatedText xml:lang="en">Label for Nominal Study Day</TranslatedText>
                </Description>
                <mdr:CDISCNotes>
                    <TranslatedText xml:lang="en">A label for a given value of CLNOMDY as presented
                        in the study report. Examples: "Week 4," "Day 28," "Terminal
                        Sac".</TranslatedText>
                </mdr:CDISCNotes>
            </ItemDef>
            <ItemDef DataType="text" Name="CLTPT" OID="IT.CL.CLTPT" mdr:Core="Perm"
                mdr:SubmissionDataType="Char">
                <Description>
                    <TranslatedText xml:lang="en">Planned Time Point Name</TranslatedText>
                </Description>
                <mdr:CDISCNotes>
                    <TranslatedText xml:lang="en">Text description of time when an observation
                        should be taken, as defined in the protocol. This may be represented as an
                        elapsed time relative to a fixed reference point, such as time
                        postdose.</TranslatedText>
                </mdr:CDISCNotes>
            </ItemDef>
            <ItemDef DataType="double" Name="CLTPTNUM" OID="IT.CL.CLTPTNUM" mdr:Core="Perm"
                mdr:SubmissionDataType="Num">
                <Description>
                    <TranslatedText xml:lang="en">Planned Time Point Number</TranslatedText>
                </Description>
                <mdr:CDISCNotes>
                    <TranslatedText xml:lang="en">Numerical version of CLTPT to aid in
                        sorting.</TranslatedText>
                </mdr:CDISCNotes>
            </ItemDef>
            <ItemDef DataType="text" Name="CLELTM" OID="IT.CL.CLELTM" mdr:Core="Perm"
                mdr:SubmissionDataType="Char">
                <Description>
                    <TranslatedText xml:lang="en">Planned Elapsed Time from Time Point
                        Ref</TranslatedText>
                </Description>
                <mdr:CDISCNotes>
                    <TranslatedText xml:lang="en">Planned Elapsed time (in ISO 8601 format) relative
                        to a planned reference (CLTPTREF). This variable is useful where there are
                        repetitive measures. Not a clock time or a date time variable. Represented
                        as an ISO 8601 duration. Examples: "- PT15M" to represent the period of 15
                        minutes prior to the reference point indicated by CLTPTREF, or "PT8H" to
                        represent the period of 8 hours after the reference point indicated by
                        CLTPTREF.</TranslatedText>
                </mdr:CDISCNotes>
            </ItemDef>
            <ItemDef DataType="text" Name="CLTPTREF" OID="IT.CL.CLTPTREF" mdr:Core="Perm"
                mdr:SubmissionDataType="Char">
                <Description>
                    <TranslatedText xml:lang="en">Time Point Reference</TranslatedText>
                </Description>
                <mdr:CDISCNotes>
                    <TranslatedText xml:lang="en">Name of the fixed reference point referred to by
                        CLELTM, if used for CLTPTNUM, and CLTPT. It is recommended that CLTPTREF be
                        as descriptive as possible, so the reference time point can be inferred
                        without looking at other variables. Examples: PREVIOUS DOSE, PREVIOUS
                        MEAL.</TranslatedText>
                </mdr:CDISCNotes>
            </ItemDef>
            <ItemDef DataType="text" Name="CLRFTDTC" OID="IT.CL.CLRFTDTC" mdr:Core="Perm"
                mdr:SubmissionDataType="Char">
                <Description>
                    <TranslatedText xml:lang="en">Date/Time of Reference Time Point</TranslatedText>
                </Description>
                <mdr:CDISCNotes>
                    <TranslatedText xml:lang="en">Date/Time of the reference time point,
                        CLTPTREF.</TranslatedText>
                </mdr:CDISCNotes>
            </ItemDef>
            <ItemDef DataType="text" Name="STUDYID" OID="IT.DD.STUDYID" mdr:Core="Req"
                mdr:SubmissionDataType="Char">
                <Description>
                    <TranslatedText xml:lang="en">Study Identifier</TranslatedText>
                </Description>
                <mdr:CDISCNotes>
                    <TranslatedText xml:lang="en">Unique identifier for a study.</TranslatedText>
                </mdr:CDISCNotes>
            </ItemDef>
            <ItemDef DataType="text" Name="DOMAIN" OID="IT.DD.DOMAIN" mdr:Core="Req"
                mdr:SubmissionDataType="Char">
                <Description>
                    <TranslatedText xml:lang="en">Domain Abbreviation</TranslatedText>
                </Description>
                <CodeListRef CodeListOID="CL.C66734.DD"/>
                <mdr:CDISCNotes>
                    <TranslatedText xml:lang="en">Two-character abbreviation for the
                        domain.</TranslatedText>
                </mdr:CDISCNotes>
            </ItemDef>
            <ItemDef DataType="text" Name="USUBJID" OID="IT.DD.USUBJID" mdr:Core="Req"
                mdr:SubmissionDataType="Char">
                <Description>
                    <TranslatedText xml:lang="en">Unique Subject Identifier</TranslatedText>
                </Description>
                <mdr:CDISCNotes>
                    <TranslatedText xml:lang="en">Identifier used to uniquely identify a subject
                        across all studies for all applications or submissions involving the
                        product.</TranslatedText>
                </mdr:CDISCNotes>
            </ItemDef>
            <ItemDef DataType="double" Name="DDSEQ" OID="IT.DD.DDSEQ" mdr:Core="Req"
                mdr:SubmissionDataType="Num">
                <Description>
                    <TranslatedText xml:lang="en">Sequence Number</TranslatedText>
                </Description>
                <mdr:CDISCNotes>
                    <TranslatedText xml:lang="en">Sequence number given to ensure uniqueness of
                        subject records within a domain. May be any valid number.</TranslatedText>
                </mdr:CDISCNotes>
            </ItemDef>
            <ItemDef DataType="text" Name="DDTESTCD" OID="IT.DD.DDTESTCD" mdr:Core="Req"
                mdr:SubmissionDataType="Char">
                <Description>
                    <TranslatedText xml:lang="en">Death Diagnosis Short Name</TranslatedText>
                </Description>
                <CodeListRef CodeListOID="CL.C89966"/>
                <mdr:CDISCNotes>
                    <TranslatedText xml:lang="en">Short name of the measurement, test, or
                        examination described in DDTEST. It can be used as a column name when
                        converting a dataset from a vertical to a horizontal format. The value in
                        DDTESTCD cannot be longer than 8 characters, nor can it start with a number
                        (e.g., "1TEST" is not valid). DDTESTCD cannot contain characters other than
                        letters, numbers, or underscores.</TranslatedText>
                </mdr:CDISCNotes>
            </ItemDef>
            <ItemDef DataType="text" Name="DDTEST" OID="IT.DD.DDTEST" mdr:Core="Req"
                mdr:SubmissionDataType="Char">
                <Description>
                    <TranslatedText xml:lang="en">Death Diagnosis Name</TranslatedText>
                </Description>
                <CodeListRef CodeListOID="CL.C89965"/>
                <mdr:CDISCNotes>
                    <TranslatedText xml:lang="en">Long name for DDTESTCD. The value in DDTEST cannot
                        be longer than 40 characters.</TranslatedText>
                </mdr:CDISCNotes>
            </ItemDef>
            <ItemDef DataType="text" Name="DDORRES" OID="IT.DD.DDORRES" mdr:Core="Req"
                mdr:SubmissionDataType="Char">
                <Description>
                    <TranslatedText xml:lang="en">Result or Findings as Collected</TranslatedText>
                </Description>
                <mdr:CDISCNotes>
                    <TranslatedText xml:lang="en">Result of the diagnosis of the subject's cause of
                        death, as originally received or collected.</TranslatedText>
                </mdr:CDISCNotes>
            </ItemDef>
            <ItemDef DataType="text" Name="DDSTRESC" OID="IT.DD.DDSTRESC" mdr:Core="Exp"
                mdr:SubmissionDataType="Char">
                <Description>
                    <TranslatedText xml:lang="en">Standardized Result in Character
                        Format</TranslatedText>
                </Description>
                <mdr:CDISCNotes>
                    <TranslatedText xml:lang="en">Contains the diagnosis information, copied or
                        derived from DDORRES in a standard format. Examples: UNKNOWN, GAVAGE
                        ERROR.</TranslatedText>
                </mdr:CDISCNotes>
            </ItemDef>
            <ItemDef DataType="text" Name="DDRESCAT" OID="IT.DD.DDRESCAT" mdr:Core="Perm"
                mdr:SubmissionDataType="Char">
                <Description>
                    <TranslatedText xml:lang="en">Result Category</TranslatedText>
                </Description>
                <mdr:CDISCNotes>
                    <TranslatedText xml:lang="en">Used to categorize the result of a finding.
                        Examples: TREATMENT RELATED, NONTREATMENT RELATED, UNDETERMINED, ACCIDENTAL,
                        etc.</TranslatedText>
                </mdr:CDISCNotes>
            </ItemDef>
            <ItemDef DataType="text" Name="DDEVAL" OID="IT.DD.DDEVAL" mdr:Core="Perm"
                mdr:SubmissionDataType="Char">
                <Description>
                    <TranslatedText xml:lang="en">Evaluator</TranslatedText>
                </Description>
                <mdr:CDISCNotes>
                    <TranslatedText xml:lang="en">Role of the person who provided the evaluation.
                        Examples: TOX PATHOLOGIST, PEER REVIEW, SPONSOR,
                        VETERINARIAN.</TranslatedText>
                </mdr:CDISCNotes>
            </ItemDef>
            <ItemDef DataType="text" Name="DDDTC" OID="IT.DD.DDDTC" mdr:Core="Perm"
                mdr:SubmissionDataType="Char">
                <Description>
                    <TranslatedText xml:lang="en">Date/Time</TranslatedText>
                </Description>
                <mdr:CDISCNotes>
                    <TranslatedText xml:lang="en">The date/time of subject disposition, in ISO 8601
                        format.</TranslatedText>
                </mdr:CDISCNotes>
            </ItemDef>
            <ItemDef DataType="double" Name="DDDY" OID="IT.DD.DDDY" mdr:Core="Perm"
                mdr:SubmissionDataType="Num">
                <Description>
                    <TranslatedText xml:lang="en">Study Day</TranslatedText>
                </Description>
                <mdr:CDISCNotes>
                    <TranslatedText xml:lang="en">Study day of subject disposition, in integer days.
                        The algorithm for calculations must be relative to the sponsor-defined
                        RFSTDTC variable in the Demographics (DM) domain.</TranslatedText>
                </mdr:CDISCNotes>
            </ItemDef>
            <ItemDef DataType="text" Name="STUDYID" OID="IT.FW.STUDYID" mdr:Core="Req"
                mdr:SubmissionDataType="Char">
                <Description>
                    <TranslatedText xml:lang="en">Study Identifier</TranslatedText>
                </Description>
                <mdr:CDISCNotes>
                    <TranslatedText xml:lang="en">Unique identifier for a study.</TranslatedText>
                </mdr:CDISCNotes>
            </ItemDef>
            <ItemDef DataType="text" Name="DOMAIN" OID="IT.FW.DOMAIN" mdr:Core="Req"
                mdr:SubmissionDataType="Char">
                <Description>
                    <TranslatedText xml:lang="en">Domain Abbreviation</TranslatedText>
                </Description>
                <CodeListRef CodeListOID="CL.C66734.FW"/>
                <mdr:CDISCNotes>
                    <TranslatedText xml:lang="en">Two-character abbreviation for the
                        domain.</TranslatedText>
                </mdr:CDISCNotes>
            </ItemDef>
            <ItemDef DataType="text" Name="USUBJID" OID="IT.FW.USUBJID" mdr:Core="Exp"
                mdr:SubmissionDataType="Char">
                <Description>
                    <TranslatedText xml:lang="en">Unique Subject Identifier</TranslatedText>
                </Description>
                <mdr:CDISCNotes>
                    <TranslatedText xml:lang="en">Identifier used to uniquely identify a subject
                        across all studies for all applications or submissions involving the
                        product. Either USUBJID or POOLID must be populated.</TranslatedText>
                </mdr:CDISCNotes>
            </ItemDef>
            <ItemDef DataType="text" Name="POOLID" OID="IT.FW.POOLID" mdr:Core="Perm"
                mdr:SubmissionDataType="Char">
                <Description>
                    <TranslatedText xml:lang="en">Pool Identifier</TranslatedText>
                </Description>
                <mdr:CDISCNotes>
                    <TranslatedText xml:lang="en">Identifier used for pooling subjects to assign a
                        single finding to multiple subjects. If POOLID is entered, POOLDEF records
                        must exist for each subject and the USUBJID must be null. Either USUBJID or
                        POOLID must be populated.</TranslatedText>
                </mdr:CDISCNotes>
            </ItemDef>
            <ItemDef DataType="double" Name="FWSEQ" OID="IT.FW.FWSEQ" mdr:Core="Req"
                mdr:SubmissionDataType="Num">
                <Description>
                    <TranslatedText xml:lang="en">Sequence Number</TranslatedText>
                </Description>
                <mdr:CDISCNotes>
                    <TranslatedText xml:lang="en">The sequence number must be unique for each record
                        within a USUBJID or POOLID, whichever applies for the
                        record.</TranslatedText>
                </mdr:CDISCNotes>
            </ItemDef>
            <ItemDef DataType="text" Name="FWGRPID" OID="IT.FW.FWGRPID" mdr:Core="Perm"
                mdr:SubmissionDataType="Char">
                <Description>
                    <TranslatedText xml:lang="en">Group Identifier</TranslatedText>
                </Description>
                <mdr:CDISCNotes>
                    <TranslatedText xml:lang="en">Used to tie together a block of related records in
                        a single domain for a subject or pool. This is not the treatment group
                        number.</TranslatedText>
                </mdr:CDISCNotes>
            </ItemDef>
            <ItemDef DataType="text" Name="FWTESTCD" OID="IT.FW.FWTESTCD" mdr:Core="Req"
                mdr:SubmissionDataType="Char">
                <Description>
                    <TranslatedText xml:lang="en">Food/Water Consumption Short Name</TranslatedText>
                </Description>
                <CodeListRef CodeListOID="CL.C89970"/>
                <mdr:CDISCNotes>
                    <TranslatedText xml:lang="en">Short name of the measurement, test, or
                        examination described in FWTEST. It can be used as a column name when
                        converting a dataset from a vertical to a horizontal format. The value in
                        FWTESTCD cannot be longer than 8 characters, nor can it start with a number
                        (e.g., "1TEST" is not valid). FWTESTCD cannot contain characters other than
                        letters, numbers, or underscores. Extensible controlled values are FC,
                        FCRELBW, WC, and WCRELBW.</TranslatedText>
                </mdr:CDISCNotes>
            </ItemDef>
            <ItemDef DataType="text" Name="FWTEST" OID="IT.FW.FWTEST" mdr:Core="Req"
                mdr:SubmissionDataType="Char">
                <Description>
                    <TranslatedText xml:lang="en">Food/Water Consumption Name</TranslatedText>
                </Description>
                <CodeListRef CodeListOID="CL.C89969"/>
                <mdr:CDISCNotes>
                    <TranslatedText xml:lang="en">Long name for FWTESTCD. The value in FWTEST cannot
                        be longer than 40 characters. Extensible controlled values are Food
                        Consumption, Food Consumption Relative to Body Wt, Water Consumption, Water
                        Consumption Relative to Body Wt.</TranslatedText>
                </mdr:CDISCNotes>
            </ItemDef>
            <ItemDef DataType="text" Name="FWORRES" OID="IT.FW.FWORRES" mdr:Core="Exp"
                mdr:SubmissionDataType="Char">
                <Description>
                    <TranslatedText xml:lang="en">Result or Findings as Collected</TranslatedText>
                </Description>
                <mdr:CDISCNotes>
                    <TranslatedText xml:lang="en">Result of the measurement or finding as originally
                        received or collected.</TranslatedText>
                </mdr:CDISCNotes>
            </ItemDef>
            <ItemDef DataType="text" Name="FWORRESU" OID="IT.FW.FWORRESU" mdr:Core="Exp"
                mdr:SubmissionDataType="Char">
                <Description>
                    <TranslatedText xml:lang="en">Unit of the Original Result</TranslatedText>
                </Description>
                <CodeListRef CodeListOID="CL.C71620"/>
                <mdr:CDISCNotes>
                    <TranslatedText xml:lang="en">The unit for the original result. The unit of the
                        original result should be mapped to a synonymous unit on the Controlled
                        Terminology (http://www.cdisc.org/terminology) list.</TranslatedText>
                </mdr:CDISCNotes>
            </ItemDef>
            <ItemDef DataType="text" Name="FWSTRESC" OID="IT.FW.FWSTRESC" mdr:Core="Exp"
                mdr:SubmissionDataType="Char">
                <Description>
                    <TranslatedText xml:lang="en">Standardized Result in Character
                        Format</TranslatedText>
                </Description>
                <mdr:CDISCNotes>
                    <TranslatedText xml:lang="en">Contains the result value for all findings, copied
                        or derived from FWORRES, in a standard format or standard units. FWSTRESC
                        should store all results or findings in character format; if results are
                        numeric, they should also be submitted in numeric format in
                        FWSTRESN.</TranslatedText>
                </mdr:CDISCNotes>
            </ItemDef>
            <ItemDef DataType="double" Name="FWSTRESN" OID="IT.FW.FWSTRESN" mdr:Core="Exp"
                mdr:SubmissionDataType="Num">
                <Description>
                    <TranslatedText xml:lang="en">Standardized Result in Numeric
                        Format</TranslatedText>
                </Description>
                <mdr:CDISCNotes>
                    <TranslatedText xml:lang="en">Used for numeric results or findings in standard
                        format; contains the numeric form of FWSTRESC. FWSTRESN should store all
                        numeric test results or findings.</TranslatedText>
                </mdr:CDISCNotes>
            </ItemDef>
            <ItemDef DataType="text" Name="FWSTRESU" OID="IT.FW.FWSTRESU" mdr:Core="Exp"
                mdr:SubmissionDataType="Char">
                <Description>
                    <TranslatedText xml:lang="en">Unit of the Standardized Result</TranslatedText>
                </Description>
                <CodeListRef CodeListOID="CL.C71620"/>
                <mdr:CDISCNotes>
                    <TranslatedText xml:lang="en">Standardized unit used for FWSTRESC and
                        FWSTRESN.</TranslatedText>
                </mdr:CDISCNotes>
            </ItemDef>
            <ItemDef DataType="text" Name="FWSTAT" OID="IT.FW.FWSTAT" mdr:Core="Perm"
                mdr:SubmissionDataType="Char">
                <Description>
                    <TranslatedText xml:lang="en">Completion Status</TranslatedText>
                </Description>
                <CodeListRef CodeListOID="CL.C66789"/>
                <mdr:CDISCNotes>
                    <TranslatedText xml:lang="en">Used to indicate when a test is not done or result
                        is missing. Should be null if a result exists in FWORRES.</TranslatedText>
                </mdr:CDISCNotes>
            </ItemDef>
            <ItemDef DataType="text" Name="FWREASND" OID="IT.FW.FWREASND" mdr:Core="Perm"
                mdr:SubmissionDataType="Char">
                <Description>
                    <TranslatedText xml:lang="en">Reason Not Done</TranslatedText>
                </Description>
                <mdr:CDISCNotes>
                    <TranslatedText xml:lang="en">Describes why FWSTAT is NOT DONE, such as FOOD
                        WET.</TranslatedText>
                </mdr:CDISCNotes>
            </ItemDef>
            <ItemDef DataType="text" Name="FWEXCLFL" OID="IT.FW.FWEXCLFL" mdr:Core="Perm"
                mdr:SubmissionDataType="Char">
                <Description>
                    <TranslatedText xml:lang="en">Exclusion Flag</TranslatedText>
                </Description>
                <CodeListRef CodeListOID="CL.C66742"/>
                <mdr:CDISCNotes>
                    <TranslatedText xml:lang="en">Y if the result should be excluded from all
                        calculations, otherwise null.</TranslatedText>
                </mdr:CDISCNotes>
            </ItemDef>
            <ItemDef DataType="text" Name="FWREASEX" OID="IT.FW.FWREASEX" mdr:Core="Perm"
                mdr:SubmissionDataType="Char">
                <Description>
                    <TranslatedText xml:lang="en">Reason for Exclusion</TranslatedText>
                </Description>
                <mdr:CDISCNotes>
                    <TranslatedText xml:lang="en">The reason the result should be excluded from all
                        calculations. Used only when FWEXCLFL is Y.</TranslatedText>
                </mdr:CDISCNotes>
            </ItemDef>
            <ItemDef DataType="text" Name="FWDTC" OID="IT.FW.FWDTC" mdr:Core="Exp"
                mdr:SubmissionDataType="Char">
                <Description>
                    <TranslatedText xml:lang="en">Start Date/Time of Observation</TranslatedText>
                </Description>
                <mdr:CDISCNotes>
                    <TranslatedText xml:lang="en">Date/Time of the start of the observation in IS0
                        8601 format.</TranslatedText>
                </mdr:CDISCNotes>
            </ItemDef>
            <ItemDef DataType="text" Name="FWENDTC" OID="IT.FW.FWENDTC" mdr:Core="Exp"
                mdr:SubmissionDataType="Char">
                <Description>
                    <TranslatedText xml:lang="en">End Date/Time of Observation</TranslatedText>
                </Description>
                <mdr:CDISCNotes>
                    <TranslatedText xml:lang="en">Date/Time of the end of the observation in IS0
                        8601 format.</TranslatedText>
                </mdr:CDISCNotes>
            </ItemDef>
            <ItemDef DataType="double" Name="FWDY" OID="IT.FW.FWDY" mdr:Core="Perm"
                mdr:SubmissionDataType="Num">
                <Description>
                    <TranslatedText xml:lang="en">Study Day of Start of Observation</TranslatedText>
                </Description>
                <mdr:CDISCNotes>
                    <TranslatedText xml:lang="en">Study day of the start of the observation, in
                        integer days. The algorithm for calculations must be relative to the
                        sponsor-defined RFSTDTC variable in the Demographics (DM)
                        domain.</TranslatedText>
                </mdr:CDISCNotes>
            </ItemDef>
            <ItemDef DataType="double" Name="FWENDY" OID="IT.FW.FWENDY" mdr:Core="Perm"
                mdr:SubmissionDataType="Num">
                <Description>
                    <TranslatedText xml:lang="en">Study Day of End of Observation</TranslatedText>
                </Description>
                <mdr:CDISCNotes>
                    <TranslatedText xml:lang="en">Study day of the end of the observation, in
                        integer days. The algorithm for calculations must be relative to the
                        sponsor-defined RFSTDTC variable in the Demographics (DM)
                        domain.</TranslatedText>
                </mdr:CDISCNotes>
            </ItemDef>
            <ItemDef DataType="text" Name="STUDYID" OID="IT.LB.STUDYID" mdr:Core="Req"
                mdr:SubmissionDataType="Char">
                <Description>
                    <TranslatedText xml:lang="en">Study Identifier</TranslatedText>
                </Description>
                <mdr:CDISCNotes>
                    <TranslatedText xml:lang="en">Unique identifier for a study.</TranslatedText>
                </mdr:CDISCNotes>
            </ItemDef>
            <ItemDef DataType="text" Name="DOMAIN" OID="IT.LB.DOMAIN" mdr:Core="Req"
                mdr:SubmissionDataType="Char">
                <Description>
                    <TranslatedText xml:lang="en">Domain Abbreviation</TranslatedText>
                </Description>
                <CodeListRef CodeListOID="CL.C66734.LB"/>
                <mdr:CDISCNotes>
                    <TranslatedText xml:lang="en">Two-character abbreviation for the
                        domain.</TranslatedText>
                </mdr:CDISCNotes>
            </ItemDef>
            <ItemDef DataType="text" Name="USUBJID" OID="IT.LB.USUBJID" mdr:Core="Exp"
                mdr:SubmissionDataType="Char">
                <Description>
                    <TranslatedText xml:lang="en">Unique Subject Identifier</TranslatedText>
                </Description>
                <mdr:CDISCNotes>
                    <TranslatedText xml:lang="en">Identifier used to uniquely identify a subject
                        across all studies for all application or submissions involving the product.
                        Either USUBJID or POOLID must be populated.</TranslatedText>
                </mdr:CDISCNotes>
            </ItemDef>
            <ItemDef DataType="text" Name="POOLID" OID="IT.LB.POOLID" mdr:Core="Perm"
                mdr:SubmissionDataType="Char">
                <Description>
                    <TranslatedText xml:lang="en">Pool Identifier</TranslatedText>
                </Description>
                <mdr:CDISCNotes>
                    <TranslatedText xml:lang="en">Identifier used for pooling subjects to assign a
                        single finding to multiple subjects. If POOLID is entered, POOLDEF records
                        must exist for each subject and the USUBJID must be null. Either USUBJID or
                        POOLID must be populated.</TranslatedText>
                </mdr:CDISCNotes>
            </ItemDef>
            <ItemDef DataType="double" Name="LBSEQ" OID="IT.LB.LBSEQ" mdr:Core="Req"
                mdr:SubmissionDataType="Num">
                <Description>
                    <TranslatedText xml:lang="en">Sequence Number</TranslatedText>
                </Description>
                <mdr:CDISCNotes>
                    <TranslatedText xml:lang="en">The sequence number must be unique for each record
                        within a USUBJID or POOLID, whichever applies for the
                        record.</TranslatedText>
                </mdr:CDISCNotes>
            </ItemDef>
            <ItemDef DataType="text" Name="LBGRPID" OID="IT.LB.LBGRPID" mdr:Core="Perm"
                mdr:SubmissionDataType="Char">
                <Description>
                    <TranslatedText xml:lang="en">Group Identifier</TranslatedText>
                </Description>
                <mdr:CDISCNotes>
                    <TranslatedText xml:lang="en">Used to tie together a block of related records in
                        a single domain for a subject or pool. This is not the treatment group
                        number.</TranslatedText>
                </mdr:CDISCNotes>
            </ItemDef>
            <ItemDef DataType="text" Name="LBREFID" OID="IT.LB.LBREFID" mdr:Core="Perm"
                mdr:SubmissionDataType="Char">
                <Description>
                    <TranslatedText xml:lang="en">Specimen Identifier</TranslatedText>
                </Description>
                <mdr:CDISCNotes>
                    <TranslatedText xml:lang="en">Internal or external specimen identifier. Example:
                        1009570101.</TranslatedText>
                </mdr:CDISCNotes>
            </ItemDef>
            <ItemDef DataType="text" Name="LBSPID" OID="IT.LB.LBSPID" mdr:Core="Perm"
                mdr:SubmissionDataType="Char">
                <Description>
                    <TranslatedText xml:lang="en">Sponsor-Defined Identifier</TranslatedText>
                </Description>
                <mdr:CDISCNotes>
                    <TranslatedText xml:lang="en">Sponsor-defined reference identifier. Example:
                        Line number on the Lab page.</TranslatedText>
                </mdr:CDISCNotes>
            </ItemDef>
            <ItemDef DataType="text" Name="LBTESTCD" OID="IT.LB.LBTESTCD" mdr:Core="Req"
                mdr:SubmissionDataType="Char">
                <Description>
                    <TranslatedText xml:lang="en">Lab Test or Examination Short
                        Name</TranslatedText>
                </Description>
                <CodeListRef CodeListOID="CL.C65047"/>
                <mdr:CDISCNotes>
                    <TranslatedText xml:lang="en">Short name of the measurement, test, or
                        examination described in LBTEST. It can be used as a column name when
                        converting a dataset from a vertical to a horizontal format. The value in
                        LBTESTCD cannot be longer than 8 characters, nor can it start with a number
                        (e.g., "1TEST" is not valid). LBTESTCD cannot contain characters other than
                        letters, numbers, or underscores. Examples: ALT, LDH.</TranslatedText>
                </mdr:CDISCNotes>
            </ItemDef>
            <ItemDef DataType="text" Name="LBTEST" OID="IT.LB.LBTEST" mdr:Core="Req"
                mdr:SubmissionDataType="Char">
                <Description>
                    <TranslatedText xml:lang="en">Lab Test or Examination Name</TranslatedText>
                </Description>
                <CodeListRef CodeListOID="CL.C67154"/>
                <mdr:CDISCNotes>
                    <TranslatedText xml:lang="en">Long name for LBTESTCD. The value in LBTEST cannot
                        be longer than 40 characters. Examples: Alanine Aminotransferase, Lactate
                        Dehydrogenase.</TranslatedText>
                </mdr:CDISCNotes>
            </ItemDef>
            <ItemDef DataType="text" Name="LBCAT" OID="IT.LB.LBCAT" mdr:Core="Exp"
                mdr:SubmissionDataType="Char">
                <Description>
                    <TranslatedText xml:lang="en">Category for Lab Test</TranslatedText>
                </Description>
                <mdr:CDISCNotes>
                    <TranslatedText xml:lang="en">Used to define a category of the lab test
                        performed. Examples: URINALYSIS, CLINICAL CHEMISTRY, HEMATOLOGY,
                        etc.</TranslatedText>
                </mdr:CDISCNotes>
            </ItemDef>
            <ItemDef DataType="text" Name="LBSCAT" OID="IT.LB.LBSCAT" mdr:Core="Perm"
                mdr:SubmissionDataType="Char">
                <Description>
                    <TranslatedText xml:lang="en">Subcategory for Lab Test</TranslatedText>
                </Description>
                <mdr:CDISCNotes>
                    <TranslatedText xml:lang="en">A further categorization of a test category.
                        Examples: DIFFERENTIAL, LIVER FUNCTION, ELECTROLYTES.</TranslatedText>
                </mdr:CDISCNotes>
            </ItemDef>
            <ItemDef DataType="text" Name="LBORRES" OID="IT.LB.LBORRES" mdr:Core="Exp"
                mdr:SubmissionDataType="Char">
                <Description>
                    <TranslatedText xml:lang="en">Result or Findings as Collected</TranslatedText>
                </Description>
                <mdr:CDISCNotes>
                    <TranslatedText xml:lang="en">Result of the measurement or finding as originally
                        received or collected.</TranslatedText>
                </mdr:CDISCNotes>
            </ItemDef>
            <ItemDef DataType="text" Name="LBORRESU" OID="IT.LB.LBORRESU" mdr:Core="Exp"
                mdr:SubmissionDataType="Char">
                <Description>
                    <TranslatedText xml:lang="en">Unit of the Original Result</TranslatedText>
                </Description>
                <CodeListRef CodeListOID="CL.C71620"/>
                <mdr:CDISCNotes>
                    <TranslatedText xml:lang="en">The unit for the original result. The unit of the
                        original result should be mapped to a synonymous unit on the Controlled
                        Terminology (http://www.cdisc.org/terminology) list.</TranslatedText>
                </mdr:CDISCNotes>
            </ItemDef>
            <ItemDef DataType="text" Name="LBORNRLO" OID="IT.LB.LBORNRLO" mdr:Core="Perm"
                mdr:SubmissionDataType="Char">
                <Description>
                    <TranslatedText xml:lang="en">Reference Range Lower Limit-Orig
                        Unit</TranslatedText>
                </Description>
                <mdr:CDISCNotes>
                    <TranslatedText xml:lang="en">Lower end of reference range used at the time of
                        collection for continuous measurements in original units. Should be
                        populated only for continuous results.</TranslatedText>
                </mdr:CDISCNotes>
            </ItemDef>
            <ItemDef DataType="text" Name="LBORNRHI" OID="IT.LB.LBORNRHI" mdr:Core="Perm"
                mdr:SubmissionDataType="Char">
                <Description>
                    <TranslatedText xml:lang="en">Reference Range Upper Limit-Orig
                        Unit</TranslatedText>
                </Description>
                <mdr:CDISCNotes>
                    <TranslatedText xml:lang="en">Upper end of reference range used at the time of
                        collection for continuous measurements in original units. Should be
                        populated only for continuous results.</TranslatedText>
                </mdr:CDISCNotes>
            </ItemDef>
            <ItemDef DataType="text" Name="LBSTRESC" OID="IT.LB.LBSTRESC" mdr:Core="Exp"
                mdr:SubmissionDataType="Char">
                <Description>
                    <TranslatedText xml:lang="en">Standardized Result in Character
                        Format</TranslatedText>
                </Description>
                <mdr:CDISCNotes>
                    <TranslatedText xml:lang="en">Contains the result value for all findings, copied
                        or derived from LBORRES, in a standard format or standard units. LBSTRESC
                        should store all results or findings in character format; if results are
                        numeric, they should also be submitted in numeric format in LBSTRESN. For
                        example, if a test has results NONE, NEG, and NEGATIVE in LBORRES and these
                        results effectively have the same meaning, they could be represented in
                        standard format in LBSTRESC as NEGATIVE. For other examples, see general
                        assumptions.</TranslatedText>
                </mdr:CDISCNotes>
            </ItemDef>
            <ItemDef DataType="double" Name="LBSTRESN" OID="IT.LB.LBSTRESN" mdr:Core="Exp"
                mdr:SubmissionDataType="Num">
                <Description>
                    <TranslatedText xml:lang="en">Standardized Result in Numeric
                        Format</TranslatedText>
                </Description>
                <mdr:CDISCNotes>
                    <TranslatedText xml:lang="en">Used for numeric results or findings in standard
                        format; contains the numeric form of LBSTRESC. LBSTRESN should store all
                        numeric test results or findings.</TranslatedText>
                </mdr:CDISCNotes>
            </ItemDef>
            <ItemDef DataType="text" Name="LBSTRESU" OID="IT.LB.LBSTRESU" mdr:Core="Exp"
                mdr:SubmissionDataType="Char">
                <Description>
                    <TranslatedText xml:lang="en">Unit of the Standardized Result</TranslatedText>
                </Description>
                <CodeListRef CodeListOID="CL.C71620"/>
                <mdr:CDISCNotes>
                    <TranslatedText xml:lang="en">Standardized unit used for LBSTRESC and
                        LBSTRESN.</TranslatedText>
                </mdr:CDISCNotes>
            </ItemDef>
            <ItemDef DataType="double" Name="LBSTNRLO" OID="IT.LB.LBSTNRLO" mdr:Core="Perm"
                mdr:SubmissionDataType="Num">
                <Description>
                    <TranslatedText xml:lang="en">Reference Range Lower Limit-Std
                        Unit</TranslatedText>
                </Description>
